Ax,Ay,Az,Gx,Gy,Gz
0.4367588932806324,0.4882382382382381,0.7477477477477477,0.4965048746882466,0.5015417618640668,0.5726407032108412
0.4342179559570864,0.5065065065065064,0.7540040040040039,0.500915639116103,0.4959868845597084,0.5021818372080855
0.23828345567476,1.0,0.6691691691691691,0.3337809791234282,0.3276767183494078,0.6942672270959416
0.5731225296442688,1.0,0.5362862862862863,0.4384533547273139,0.6813418909255804,0.9926748870711756
0.6733483907396951,0.4944944944944944,1.0,0.4833039747458011,0.8958770078657761,0.5536564522036381
0.4347826086956521,0.5067567567567567,0.7540040040040039,0.5009766817238432,0.4959554912185848,0.5022132305492091
0.4946357989836251,0.4724724724724723,0.7384884884884884,0.5355267977047979,0.4270087378132794,0.9182029056281285
0.3656126482213438,0.6096096096096095,0.5933433433433433,0.4721349216038509,0.7295498543697787,0.0
0.5917560700169395,0.606106106106106,0.3495995995995996,0.6156600449971222,0.8061286778171164,0.9923539773619128
0.7185206098249577,0.4987487487487486,0.5015015015015015,0.5375255070896628,0.7082773776095714,0.4895163681392469
0.4034443817052512,0.7492492492492491,0.4682182182182182,0.4462982018591834,0.5351605420583567,0.5142525768700839
0.3684359119141728,0.5122622622622621,0.7447447447447447,0.4322113120672515,0.4041334565812651,0.133821092837086
0.3977978543195934,0.5658158158158157,0.7477477477477477,0.5558993320194638,0.5070809424978635,0.1403212585241641
0.4415584415584415,0.5638138138138137,0.7637637637637638,0.5467272441878717,0.453912831156147,0.9864031951444966
0.678994918125353,0.4754754754754754,0.5805805805805806,0.4488619913842719,0.8509025585573016,0.4891344158222439
0.4189723320158103,1.0,0.7572572572572571,0.4111673090674433,0.4048502712035858,0.4456563824406578
0.4336533032185206,0.5047547547547546,0.7545045045045045,0.5012818947625443,0.4957723633953642,0.5020597519926051
0.3094297007340486,0.3546046046046045,0.7397397397397396,0.3125224549592759,0.4855032526989553,0.0172454087238606
0.4347826086956521,0.5067567567567567,0.7545045045045045,0.500915639116103,0.4959554912185848,0.5021050979297835
0.4607566346696781,0.2502502502502501,0.47997997997998,0.5406090308177965,0.4820534733243804,0.4991297068210754
0.1741953698475437,0.3966466466466465,0.3638638638638638,0.3376720093482394,0.132751975164379,0.6224968170640249
0.2989836250705816,0.6146146146146145,0.7502502502502502,0.7109022097424001,0.5120864363325601,1.0
0.6778656126482213,0.5090090090090089,0.3796296296296296,0.5675584700978425,0.7337931876449761,0.4966583532448506
0.4347826086956521,0.5065065065065064,0.7545045045045045,0.5008999424455413,0.4960322304968868,0.5020597519926051
0.4601919819311124,0.3415915915915915,0.7077077077077076,0.3433803652092017,0.5429896925196644,0.5214416519873729
0.4582156973461321,0.2412412412412412,0.4937437437437437,0.4233461813488672,0.4779793152763486,0.4940788670492003
0.4412761151891586,0.5052552552552552,0.7772772772772771,0.5001377818860422,0.5465144670980344,0.486525280359977
0.2795031055900621,0.9384384384384384,0.6348848848848848,0.4070024591450547,0.3682700524966427,0.9310671991907494
0.1566911349520045,0.5085085085085084,0.4972472472472472,0.4989465789978548,0.2413467743341995,0.5037235990721524
0.4954827780914737,0.6511511511511511,0.7192192192192192,0.8859427594746847,0.3812721279453058,1.0
0.41699604743083,0.7399899899899899,0.5713213213213213,0.5850009592409788,0.5126044264610984,0.5057537017981408
0.6905702992659515,0.4969969969969969,0.6016016016016016,0.5125137345867415,0.7420339396899036,0.4908279121684078
0.4345002823263693,0.5065065065065064,0.7542542542542542,0.500992378394405,0.4959554912185848,0.5021521879414689
0.4342179559570864,0.5067567567567567,0.7540040040040039,0.500915639116103,0.4959554912185848,0.5022132305492091
0.383399209486166,0.537037037037037,0.6941941941941941,0.6298986692711512,0.3009854020963776,1.0
0.427442123094297,0.4962462462462461,0.7590090090090089,0.4684409717983152,0.5963705809512182,0.8855294138165581
0.5067758328627894,0.548048048048048,0.766016016016016,0.5174738824842597,0.5483143519891169,0.1156303957305056
0.331733483907397,0.0295295295295294,0.5005005005005004,0.4353401817325636,0.4808326211695763,0.6517222735755271
0.3003952569169961,0.2329829829829829,0.4532032032032032,0.4516699513403213,0.5454610460958892,0.7260861223991488
0.4345002823263693,0.5062562562562561,0.7542542542542542,0.5008545965083628,0.4959711878891466,0.5020457993965503
0.4288537549407115,0.7492492492492491,0.5285285285285285,0.1718506374592322,0.5065926016359419,0.5059368296213614
0.6832298136645962,0.5055055055055054,0.5900900900900901,0.5146048799204702,0.1067024783298742,0.514467098034428
0.168266516092603,0.4959959959959959,0.4416916916916916,0.4993581805814744,0.6479376318956346,0.5018312782322061
0.176171654432524,0.5075075075075074,0.4199199199199199,0.4788339117847114,0.637651080454157,0.496170012382929
0.2182382834556747,0.609109109109109,1.0,0.4815965258035823,0.2863351762387289,0.8187034550115981
0.3802936194240542,0.902152152152152,0.6574074074074073,0.5582956903918935,0.68978146746429,0.0428972565708007
0.8794466403162056,0.1053553553553552,0.8405905905905906,1.0,0.2366778868793275,0.0
0.7111801242236024,0.5110110110110109,0.5327827827827828,0.504135200655772,0.7590944765160368,0.4980309398817517
0.4285714285714286,0.7592592592592591,0.53003003003003,0.4563091895285767,0.5141461883251652,0.508882571463453
0.5211744776962168,0.8638638638638638,0.5182682682682682,0.5714651969932155,0.4575596909499974,0.0
0.4345002823263693,0.5067567567567567,0.7542542542542542,0.500915639116103,0.4959101452814064,0.5022132305492091
0.4155844155844156,0.7324824824824824,0.5643143143143143,0.6207719273767376,0.5242949578806007,0.4971309974362105
0.3514963297571993,0.5265265265265264,0.7222222222222222,0.6030695711320788,0.5249821232363047,0.2177843277464813
0.2905138339920948,0.9154154154154152,0.6641641641641641,0.5296510106911767,0.359129358006174,0.777361912900919
0.4669678147939017,0.5147647647647646,0.7382382382382382,0.5661544901198179,0.5302474841725239,0.2089784955613304
0.44042913608131,0.4864864864864864,0.7364864864864864,0.4728063902889931,0.4440082320316724,0.6484852712907896
0.1736307171089779,0.5055055055055054,0.5325325325325325,0.4877618291853428,0.1746115074035962,0.5065926016359419
0.4045736871823828,0.5302802802802802,0.756006006006006,0.5357413188691421,0.4585974152815808,0.2882431937492369
0.4345002823263693,0.5065065065065064,0.7545045045045045,0.5009609850532815,0.4959868845597084,0.5022289272197709
0.3534726143421796,0.7687687687687687,0.5137637637637638,0.1187435687252559,0.3563963932539198,0.0
0.6338226990400904,0.5095095095095095,0.6741741741741741,0.5240804367162565,0.2362348919545843,0.5320316723930446
0.4217955957086391,0.7149649649649649,0.6333833833833833,0.6391614489771003,0.5151089174529536,0.4898512304445646
0.4336533032185206,0.5052552552552552,0.7545045045045045,0.5010063309904599,0.4959711878891466,0.5019987093848649
0.4345002823263693,0.5065065065065064,0.7545045045045045,0.500915639116103,0.4959554912185848,0.5020144060554267
0.6304347826086956,0.4832332332332331,0.6689189189189189,0.513397980361721,0.1669811814360709,0.5442715872822087
0.435064935064935,0.507007007007007,0.7545045045045045,0.500915639116103,0.496016533826325,0.5021364912709071
0.4345002823263693,0.5065065065065064,0.7545045045045045,0.5008702931789246,0.4959397945480231,0.5021661405375237
0.4345002823263693,0.5065065065065064,0.7542542542542542,0.5008545965083628,0.4959101452814064,0.5021975338786473
0.487012987012987,0.532032032032032,0.7479979979979979,0.4447407433245548,0.4054293039398643,0.3851474614995552
0.4347826086956521,0.5067567567567567,0.7542542542542542,0.5008545965083628,0.4959554912185848,0.5022428798158257
0.4488989271597967,0.3726226226226226,0.6766766766766766,0.7272616286167746,0.4873345309311613,0.5035858171861102
0.4463579898362507,0.5072572572572571,0.6539039039039038,0.4373388911174285,0.3085546854561627,1.0
0.4333709768492377,0.5050050050050049,0.7545045045045045,0.5010534210021452,0.495864799344228,0.5021364912709071
0.4263128176171654,0.5457957957957957,0.7434934934934935,0.437141810698153,0.4587508938381848,0.0762265203969513
0.4130434782608695,0.7337337337337336,0.5848348348348348,0.6661876275354484,0.4748800948776531,0.4949945061653034
0.4929418407679277,0.5400400400400399,0.7314814814814814,0.2959345623245025,0.3428309817395399,0.0863142473446466
0.4071146245059288,0.564064064064064,0.7790290290290289,0.5947381272127945,0.426656434762893,0.0609658684619006
0.3726708074534162,0.5075075075075074,0.76001001001001,0.5007935539006226,0.766724802483562,0.4911645185482324
0.2179559570863918,0.4929929929929929,0.6438938938938938,0.5173361005982176,0.8434571044875037,0.4853811674834749
0.3489553924336533,1.0,0.8058058058058057,0.3258157908505851,0.5503305021190505,0.3119120288818738
0.5578769057029926,0.6636636636636636,0.6416416416416416,0.4919877217154716,0.5027015714111307,0.5302317875019621
0.5163749294184077,0.5505505505505505,0.7397397397397396,0.3623035736086646,0.5603100964473202,0.0
0.4500282326369283,0.2442442442442442,0.4449449449449449,0.5578526954671503,0.5298184418438355,0.4847393480649493
0.4347826086956521,0.4599599599599598,0.7367367367367367,0.9666864328444112,0.5620803320717861,0.5081797094371872
0.4345002823263693,0.5062562562562561,0.7545045045045045,0.500992378394405,0.4959554912185848,0.5019690601182483
0.4347826086956521,0.5062562562562561,0.7547547547547546,0.5005650801402236,0.4961839649789839,0.5021207946003453
0.4469226425748165,0.3686186186186185,0.7164664664664664,0.7099098313479952,0.5554109911575422,0.5108045415700159
0.4333709768492377,0.5282782782782782,0.7472472472472472,0.6096778694385824,0.5569841463627326,0.1531402061496067
0.4057029926595144,0.5875875875875874,0.7892892892892892,0.7089645429652754,0.5984774229555087,0.0963548842806565
0.4579333709768492,0.5610610610610609,0.7272272272272272,0.5556098156513246,0.4748190522699129,0.0016777996756021
0.4483342744212309,0.4884884884884884,0.7515015015015014,0.5149240455552261,0.4745295359017737,0.5206480980867503
0.4596273291925465,0.2690190190190189,0.5803303303303303,0.2402183581282592,0.4255890611646929,0.5271639604443902
0.4054206662902315,0.7342342342342341,0.5908408408408408,0.6826237856881245,0.5305823464778415,0.5040741580480318
0.4178430265386787,0.8798798798798797,0.6694194194194194,0.5157646894675341,0.5971187889146624,0.2126427961002494
0.4720496894409938,0.5485485485485484,0.7134634634634633,0.4645028515618187,0.4725308265169088,1.0
0.4345002823263693,0.5065065065065064,0.7547547547547546,0.5008092505711844,0.4959554912185848,0.50198475678881
0.6058723884810842,0.5125125125125124,0.6896896896896896,0.4924307166402148,0.7415612954985437,0.4896384533547273
0.1945228684359119,0.5002502502502502,0.3576076076076076,0.5117812232938591,0.3045729633569946,0.5050961857090535
0.3966685488424619,0.6068568568568568,0.5738238238238238,0.0,0.693001029003959,0.0309486021242827
0.4683794466403162,0.5462962962962962,0.7507507507507507,0.5308875595165425,0.5224340303817779,0.1722465423722901
0.4161490683229814,0.7852852852852852,0.5948448448448448,0.5590578509513926,0.6552766974205138,0.0383033643197237
0.4342179559570864,0.5065065065065064,0.7545045045045045,0.5008545965083628,0.4959711878891466,0.5022289272197709
0.5815923207227556,0.3485985985985985,0.5585585585585585,0.4954514536861015,0.2220119643511171,0.8868566545162809
0.3865047995482778,0.573073073073073,0.7525025025025025,0.5649789839021923,0.4970246088912918,0.1483945794164327
0.4760022586109542,0.5272772772772771,0.761011011011011,0.4676020719605142,0.4641069466487608,0.6468231682857492
0.4347826086956521,0.5065065065065064,0.7542542542542542,0.500915639116103,0.4959554912185848,0.5021661405375237
0.3791643139469226,0.5080080080080079,0.7507507507507507,0.5076756719047038,0.5660027556377208,0.5953328566196348
0.435347261434218,0.4421921921921921,0.7677677677677677,0.7487800198824494,0.4751103127125591,0.5009470324572266
0.3817052512704686,0.5187687687687687,0.7547547547547546,0.4860526361686171,0.5242025219317369,0.48898093726564
0.401468097120271,0.5217717717717717,0.741991991991992,0.6374993459720599,0.2988192615588538,0.1386277621780002
0.1902879728966685,0.5117617617617617,0.5995995995995995,0.4802832376999145,0.1722011964351117,0.515536215707135
0.435347261434218,0.5067567567567567,0.7542542542542542,0.500838899837801,0.4960008371557633,0.5021364912709071
0.4418407679277245,0.4952452452452451,0.7447447447447447,0.5906325758236391,0.3567940422414846,0.1575213213108464
0.4345002823263693,0.5067567567567567,0.7545045045045045,0.5009766817238432,0.4960008371557633,0.5022132305492091
0.5844155844155844,1.0,0.5630630630630631,0.2735162286132864,0.3933742609484277,0.7757748050996738
0.4167137210615471,0.4789789789789789,0.78003003003003,0.5487120009766817,0.4746516211172541,0.7106737359820011
0.6504799548277809,0.4919919919919919,0.3561061061061061,0.5054031428222614,0.5129567295114847,0.5086366569579852
0.3066064370412196,0.0035035035035034,0.5035035035035035,0.4937579573399375,0.4348832342117655,0.4675706786193906
0.4356295878035008,0.4767267267267266,0.7755255255255256,0.3820046392381883,0.5490015173448209,0.7029823674067356
0.5016939582156974,0.4767267267267266,0.7107107107107107,0.4831225909970874,0.4898372778485096,0.3109510438285924
0.7015810276679841,0.4914914914914914,0.3828828828828828,0.4795193330659085,0.399783734761149,0.500838899837801
0.4232072275550536,0.4476976976976976,0.7027027027027026,0.3910546418543,0.0,0.6322950276435809
0.4345002823263693,0.5067567567567567,0.7545045045045045,0.5009313357866648,0.4960008371557633,0.5022289272197709
0.4184076792772445,0.5192692692692692,0.7344844844844844,0.4886303782897605,0.5062577393306242,0.2625442558906116
0.4875776397515527,0.4644644644644644,0.7510010010010009,0.5141165390585486,0.4965519646999319,0.374908000069763
0.4906832298136646,0.5012512512512511,0.7585085085085085,0.495559586305527,0.7152065856253379,0.4834888466435286
0.4347826086956521,0.5062562562562561,0.7542542542542542,0.5009470324572266,0.4959711878891466,0.5020754486631669
0.4638622247317899,0.7384884884884884,0.8508508508508508,0.5149397422257879,0.9821302126026824,0.0
0.6651609260304913,0.4867367367367367,0.566066066066066,0.4590857561435024,0.0020597519926051,0.4992064460993773
0.422360248447205,0.553053053053053,0.7379879879879879,0.491881333170553,0.514238624274029,0.8077000889477999
0.4336533032185206,0.5052552552552552,0.7547547547547546,0.5011441128765021,0.4958491026736662,0.5021050979297835
0.4347826086956521,0.5067567567567567,0.7552552552552552,0.5009609850532815,0.4959868845597084,0.5022132305492091
0.4627329192546583,0.4717217217217216,0.7510010010010009,0.5250431658440449,0.4476254425589061,0.177007865776026
0.5592885375494071,0.9489489489489488,0.6083583583583583,0.2653679125172227,0.6580846573765631,0.0
0.4347826086956521,0.5067567567567567,0.755005005005005,0.501069117672707,0.4960008371557633,0.5021818372080855
0.4345002823263693,0.5067567567567567,0.7542542542542542,0.5008842457749795,0.4959397945480231,0.5021364912709071
0.4017504234895539,0.6644144144144143,0.6859359359359358,0.1229694612553848,0.4559429338821354,0.473889460557755
0.4059853190287973,0.507007007007007,0.7690190190190189,0.5342449029422537,0.3355058688107156,0.5049601478975182
0.362507058159232,0.8153153153153152,0.6931931931931932,0.5308265169088023,0.4357221340495666,0.9324572265727192
0.4243365330321852,0.4329329329329328,0.6929429429429429,0.4468929312660237,0.4514257809093605,0.1915063571515775
0.4850367024280068,0.4907407407407406,0.7637637637637638,0.5573033119974885,0.5034951253117533,0.7672445366866072
0.1792772444946357,0.5027527527527527,0.4069069069069069,0.4977117742469958,0.621490486073565,0.5026701780700071
0.4184076792772445,0.1594094094094093,0.5565565565565566,0.6992273749934597,0.5352372813366587,0.8631878193836441
0.5223037831733484,0.4887387387387386,0.745995995995996,0.494413729354518,0.978483352808832,0.5150932207823918
0.4376058723884811,0.4564564564564564,0.7555055055055054,0.8060222892721978,0.5060118248251565,0.5407450686293318
0.4528514963297572,0.5062562562562561,0.7545045045045045,0.8097755376109668,0.514849050351431,0.4711721924760625
0.4390175042348955,0.4819819819819819,0.7612612612612613,0.2173884228334234,0.4162338455098802,0.4914086889791932
1.0,0.547047047047047,0.9146646646646646,0.7423391527286045,0.8135915726319829,0.0
0.4345002823263693,0.5065065065065064,0.7545045045045045,0.500915639116103,0.4959711878891466,0.5021364912709071
0.1964991530208922,0.5022522522522521,0.3766266266266266,0.5032963008179709,0.2001430141095627,0.5023806617018679
0.3102766798418972,0.9969969969969968,0.6373873873873874,0.4157158553813419,0.5681845928458064,0.0159931632279331
0.4952004517221908,0.4792292292292291,0.6886886886886887,0.3940596822296248,0.5764096482201719,0.23441931039294
0.484472049689441,0.5057557557557557,0.7607607607607607,0.4976803809058723,0.6644330885815442,0.4897901878368244
0.3399209486166008,0.7334834834834834,0.3435935935935936,0.5143607094895094,0.6128834783821965,0.5479341437466209
0.4889892715979672,0.4704704704704704,0.7414914914914914,0.5065769049653801,0.4958804960147897,0.3214346756893455
0.4872953133822699,0.3183183183183182,0.6934434434434434,0.6363534890210509,0.5469103720110923,0.0
0.4342179559570864,0.5067567567567567,0.7552552552552552,0.5009766817238432,0.496016533826325,0.5022132305492091
0.47656691134952,0.5015015015015014,0.7510010010010009,0.4855485986361337,0.4941852555941189,0.4814883931841568
0.4528514963297572,0.4279279279279279,0.7374874874874874,0.8698885536390115,0.5306887350227601,0.4949788094947416
0.367871259175607,0.2647647647647647,0.5115115115115115,0.0,0.4005912412578265,0.0
0.4472049689440994,0.4584584584584584,0.7592592592592592,0.1993041142717617,0.4449709611594607,0.5171076268378185
0.4432523997741389,0.4939939939939939,0.7597597597597596,0.5401503392224916,0.6465633011842266,0.4981983710344106
0.4000564652738566,0.3783783783783783,0.6146146146146145,0.7564713884577149,0.5445000610426077,1.0
0.1962168266516092,0.5007507507507507,0.3818818818818819,0.4933917016934963,0.6709036050020056,0.5045624989099534
0.4345002823263693,0.507007007007007,0.755005005005005,0.5009470324572266,0.4959397945480231,0.5021975338786473
0.4336533032185206,0.5050050050050049,0.7535035035035034,0.5014493259152031,0.4956345815093221,0.5021521879414689
0.4347826086956521,0.5067567567567567,0.7542542542542542,0.5008842457749795,0.4959868845597084,0.5022132305492091
0.4328063241106719,0.5703203203203202,0.7424924924924925,0.6252140851457174,0.5008232031672393,0.4923243280952962
0.655561829474873,1.0,0.2845345345345345,0.3998604740394509,0.5110783612675933,0.1659295045084326
0.4260304912478825,0.4984984984984984,0.7442442442442442,0.7533425187924028,0.5368854317456442,0.5028846992343513
0.4553924336533032,0.4757257257257256,0.6216216216216216,0.5000453459371784,0.238782984809111,1.0
0.17871259175607,0.502002002002002,0.4121621621621621,0.508347140589846,0.6881943596630448,0.4976350349686939
0.4161490683229814,0.7489989989989989,0.4431931931931931,0.0762108237263896,0.536747649859602,0.4695693880042555
0.7063805759457933,0.0,1.0,0.7060344977937457,0.3234804750858956,0.306617018679038
0.1789949181253529,0.5055055055055054,0.4079079079079079,0.4963060501944643,0.5864973751678672,0.5005493834696618
0.4621682665160926,0.3573573573573573,0.2985485485485485,0.3689868671189633,0.5197935015783874,0.5043183284789926
0.4367588932806324,0.5090090090090089,0.7339839839839839,0.574410938835307,0.5349931109056979,0.2249716587892634
0.4232072275550536,0.7044544544544543,0.6589089089089089,0.6873851090918603,0.4926295411339972,0.4888135061129811
0.3605307735742518,0.5025025025025024,0.7522522522522521,0.5136892408043672,0.4143118754033172,0.5362279156565568
0.4621682665160926,0.5212712712712712,0.7892892892892892,0.4535151821685822,0.4973751678671713,0.2240577637476672
0.4632975719932242,0.5095095095095095,0.7442442442442442,0.5184034741964176,0.4715855381341891,0.744064042415892
0.4347826086956521,0.5067567567567567,0.7542542542542542,0.5009313357866648,0.4959397945480231,0.5022132305492091
0.4342179559570864,0.5062562562562561,0.7542542542542542,0.5017859322950277,0.4953921551528681,0.5021050979297835
1.0,0.5975975975975975,1.0,0.7935242513560179,0.0,0.417088442018243
0.9339356295878034,0.314064064064064,0.7562562562562563,0.5622024172872665,1.0,0.5272250030521304
0.435064935064935,0.5065065065065064,0.7542542542542542,0.5009470324572266,0.4959397945480231,0.5020457993965503
0.6693958215697347,0.4977477477477476,0.3718718718718719,0.4447878333362401,0.3218166280063484,0.5115056595217747
0.4582156973461321,0.5795795795795795,0.7497497497497497,0.8276924150199696,0.7739138776008512,0.0
0.4257481648785997,0.4574574574574573,0.7457457457457457,0.4993738772520362,0.4724401346425519,0.8075169611245792
0.4076792772444946,0.5405405405405405,0.7434934934934935,0.4971606467028271,0.4610094703245723,0.3458674154559883
0.2038396386222473,0.4982482482482481,0.3596096096096096,0.521516647191168,0.358824144967473,0.5150932207823918
0.7114624505928854,0.4862362362362361,0.5072572572572572,0.4976350349686939,0.2395625861136788,0.5202818424403091
0.5612648221343873,0.5165165165165164,0.7127127127127126,0.495788060065926,0.1659138078378708,0.4963827894727662
0.468944099378882,0.2887887887887888,0.5893393393393394,0.7401869647871357,0.4789403003296301,0.5269354866839911
0.4463579898362507,0.3045545545545545,0.3328328328328328,0.5139787571725064,0.4929487067687532,0.4904930498630901
0.1922642574816488,0.4852352352352351,0.6301301301301301,0.5726093098697176,0.813881089000122,0.5540070111795176
0.453416149068323,0.5162662662662661,0.7507507507507507,0.4932085738702757,0.4815965258035823,0.2134049566597485
0.7103331451157537,0.4882382382382381,0.5177677677677678,0.5114760102551581,0.6399096569405445,0.4982594136421508
0.196781479390175,0.4947447447447446,0.3821321321321321,0.4781624430995692,0.6875228909779025,0.4911331252071088
0.4342179559570864,0.5065065065065064,0.755005005005005,0.5002441704309608,0.4962764009278476,0.5021661405375237
0.2306606437041219,0.8278278278278277,0.6936936936936937,0.4583375481800582,0.4305178157210876,0.4382702269040933
0.3390739695087521,0.5067567567567567,0.7542542542542542,0.5715715855381341,0.4986570626297155,0.3745731377644453
0.4138904573687182,0.7357357357357356,0.6181181181181181,0.4252995447965537,0.4888745487207213,0.4873345309311613
0.4345002823263693,0.5067567567567567,0.7547547547547546,0.5009470324572266,0.4959554912185848,0.5020754486631669
0.645115753811406,0.0,1.0,0.7432390951741459,0.3517588991401713,0.62449552644889
0.1504799548277809,0.5022522522522521,0.5758258258258258,0.5022882257530041,0.1187732179918726,0.5357866648063205
0.4020327498588368,0.7354854854854853,0.4617117117117117,0.467159077035771,0.5430803843940213,0.4931318345919738
0.4263128176171654,0.5615615615615615,0.7625125125125125,0.4200027905192109,0.4694333501927202,1.0
0.4308300395256917,0.5252752752752752,0.7439939939939939,0.5229206271691926,0.4550272947660324,0.896182220904477
0.6535855448898927,0.4777277277277276,0.5940940940940941,0.4637563876728814,0.9017510508048904,0.4795960723442105
0.4347826086956521,0.507007007007007,0.7545045045045045,0.5008842457749795,0.4959711878891466,0.5021661405375237
0.414455110107284,0.7585085085085084,0.5335335335335335,0.376587543819872,0.4726372150618274,0.5126044264610984
0.4198193111236589,0.7057057057057056,0.6689189189189189,0.6560092087133962,0.5275755620280098,0.491194167814849
0.4424054206662902,0.4849849849849849,0.73998998998999,0.4661056560336257,0.5652841969408933,0.7186389242548441
0.4345002823263693,0.5067567567567567,0.7545045045045045,0.5008842457749795,0.4959554912185848,0.5021364912709071
0.4330886504799548,0.5050050050050049,0.7547547547547546,0.500992378394405,0.4960322304968868,0.5019690601182483
0.4085262563523433,0.7484984984984984,0.506006006006006,0.6111742853654708,0.5093098697176344,0.5016934963461639
0.4105025409373236,0.5037537537537536,0.7632632632632632,0.5023649650313061,0.6584823063641279,0.4905994384080088
0.5335968379446641,0.9587087087087084,0.7312312312312312,0.2757451558330572,0.6048258541604897,0.0436001185970665
0.4347826086956521,0.5067567567567567,0.7540040040040039,0.5008545965083628,0.4960008371557633,0.5023492683607443
0.4339356295878035,0.5057557557557557,0.7545045045045045,0.5012051554842423,0.4957584107993093,0.5020754486631669
0.4062676453980802,0.7437437437437436,0.4884884884884884,0.731518914488027,0.4891640650888606,0.4750946160419973
0.4184076792772445,0.7462462462462461,0.5327827827827828,0.4487556028393533,0.5112021905575806,0.5202207998325689
0.4779785431959345,0.2677677677677677,0.4669669669669669,0.7397439698623924,0.5400282540070112,0.499007621605595
0.4347826086956521,0.5067567567567567,0.7545045045045045,0.5014039799780247,0.4960775764340652,0.5021661405375237
0.4542631281761716,0.4624624624624623,0.7657657657657657,0.5778136281981966,0.5492456877757818,0.5210283063292463
0.4226425748164878,0.5212712712712712,0.7437437437437437,0.4438251042084518,0.5538099307602421,0.8567783455709228
0.4342179559570864,0.5065065065065064,0.7537537537537538,0.5008702931789246,0.4958944486108446,0.5022132305492091
0.1589497459062676,0.5090090090090089,0.4834834834834834,0.4738423705460697,0.6396497898390219,0.5014039799780247
0.4285714285714286,0.4907407407407406,0.7487487487487487,0.4630395730505607,0.5529849835184959,0.7406456563824406
0.4596273291925465,0.0,0.7212212212212212,0.5977135183215027,0.4364999912796274,0.2359139822453215
0.4246188594014681,0.4849849849849849,0.78003003003003,0.5029457418420915,0.5626297155414479,0.491881333170553
0.6383399209486166,0.0,1.0,0.4907668695606676,0.4073687147914959,0.9394003871845404
0.53613777526821,0.4031531531531531,0.6936936936936937,0.5034794286411916,0.268189825069327,0.6091895285766608
0.4311123658949746,0.5150150150150149,0.7479979979979979,0.4377365401049933,0.374220834714059,0.1403823011319043
0.4421230942970073,0.2657657657657657,0.5638138138138138,0.7492212707326856,0.5054484887594398,0.4724087413014284
0.4059853190287973,0.6811811811811811,0.6904404404404404,0.1714686851422293,0.5195336344768648,0.4837312729999826
0.4155844155844156,0.7257257257257256,0.4079079079079079,0.501602804471807,0.4748800948776531,0.4979542006034498
0.5265386787125917,0.7505005005005003,0.6463963963963963,0.5258367197446675,0.4989169297312381,0.0
0.4483342744212309,0.906156156156156,0.4912412412412412,0.4592845806372848,0.3307741946735965,0.0752969286847934
0.3481084133258046,0.542042042042042,0.7402402402402402,0.4552557685264314,0.5140711931213702,0.9709890646528418
0.4452286843591191,0.2765265265265264,0.518018018018018,0.7603624186825261,0.513704937474929,0.4798559394457331
0.4345002823263693,0.5065065065065064,0.7545045045045045,0.5010063309904599,0.4959258419519682,0.5021207946003453
0.4263128176171654,0.6488988988988988,0.700950950950951,0.2003575352739068,0.4571027434291993,0.4953764584823064
0.4345002823263693,0.507007007007007,0.7545045045045045,0.500992378394405,0.4959868845597084,0.5021207946003453
0.2425183512140034,0.8858858858858858,0.6193693693693694,0.4737813279383295,0.5439210283063293,1.0
0.4460756634669678,0.4834834834834834,0.7780280280280281,0.5170622809006401,0.5535500636587195,0.4166925371051851
0.4466403162055336,0.4814814814814814,0.7119619619619619,0.402698083262117,0.3989291382527861,0.0675741667684043
0.4333709768492377,0.4942442442442442,0.7517517517517517,0.4849224758881699,0.5264471458220695,0.3028323769991454
0.3788819875776397,0.5022522522522521,0.7635135135135135,0.5030835237281337,0.712062019289464,0.4865706262971554
0.4356295878035008,0.5450450450450449,0.777027027027027,0.4434902419031341,0.5460557755027294,0.4728517362261716
0.6214003387916431,0.0553053053053052,0.7522522522522521,0.697900134293737,0.3778380452412927,0.0
0.6987577639751552,0.888138138138138,0.6984484484484484,0.3534663480823901,0.4171041386888048,1.0
0.7063805759457933,0.4934934934934934,0.5377877877877878,0.4877618291853428,0.2095592723721157,0.5369307776828226
0.4302653867871259,0.3068068068068067,0.6423923923923923,0.4636186057868392,0.4756439995116591,0.5026405288033905
0.3757763975155279,0.5402902902902902,0.7442442442442442,0.4745609292428973,0.4695240420670771,0.5435233793187645
0.4511575381140598,0.4884884884884884,0.7577577577577577,0.5111097546087169,0.6727348832342117,0.4848160873432513
0.549124788255223,1.0,0.572072072072072,0.6642046148211451,0.5619129009191273,1.0
0.4647092038396386,0.5085085085085084,0.7740240240240239,0.5206480980867503,0.529010935347158,0.8785705565341752
0.551665725578769,0.6834334334334333,0.6293793793793794,0.5143450128189476,0.4984285888693165,0.4865863229677172
0.5101637492941841,0.4744744744744744,0.7464964964964964,0.5143293161483858,0.5630727104661911,0.359434571044875
0.4887069452286843,0.4902402402402401,0.7735235235235235,0.4470464098226276,0.3425711146380173,0.8666829446953974
0.435064935064935,0.5065065065065064,0.7540040040040039,0.5008545965083628,0.4959258419519682,0.5021050979297835
0.411914172783738,0.7494994994994993,0.5765765765765766,0.6312416066414357,0.4870432704885152,0.5170151908889548
0.4531338226990401,0.557057057057057,0.7157157157157157,0.5218689502415543,0.4287475800966217,0.1279766991645883
0.4887069452286843,0.4474474474474473,0.7397397397397396,0.4967490451192075,0.5386713640406718,0.582683084221358
0.3771880293619424,0.3493493493493492,0.561061061061061,0.5239897448418996,0.644700629610897,0.8668817691891797
0.3455674760022586,1.0,0.3876376376376376,0.6968013673544133,0.4512879990233183,0.9180197778049078
0.3842461885940147,0.5385385385385384,0.7452452452452452,0.5122992134223974,0.5080262308805832,0.5625843696042695
0.6643139469226426,0.935185185185185,0.7762762762762763,0.4259256675445175,0.4999843033294382,0.0
0.435064935064935,0.5067567567567567,0.7545045045045045,0.500915639116103,0.4959258419519682,0.5021975338786473
0.463579898362507,0.2745245245245244,0.5685685685685685,0.2650783961490834,0.420613216596613,0.496703699182029
0.419536984754376,0.4944944944944944,0.7807807807807807,0.455592374906256,0.4914086889791932,0.5167867171285557
0.4347826086956521,0.5067567567567567,0.7547547547547546,0.5008999424455413,0.4960008371557633,0.5021661405375237
0.3944099378881988,0.7249749749749749,0.6764264264264264,0.8427699391317998,0.5197010656295237,0.4715541447930655
0.435064935064935,0.5065065065065064,0.7547547547547546,0.5011284162059403,0.4959554912185848,0.5021818372080855
0.4347826086956521,0.5065065065065064,0.7542542542542542,0.5008999424455413,0.496016533826325,0.5021050979297835
0.5567476002258611,0.896146146146146,0.6326326326326326,0.7599804663655232,0.6323107243141427,1.0
0.4345002823263693,0.5067567567567567,0.7542542542542542,0.5008545965083628,0.4959868845597084,0.5021661405375237
0.2749858836815358,0.6911911911911911,0.7387387387387387,0.1420008022742732,0.3925650103772433,0.9160507176866596
0.678994918125353,0.4982482482482481,0.3718718718718719,0.5360151385667196,0.7394091075570748,0.5062420426600625
0.6072840203274986,0.4589589589589589,0.6498998998998998,0.5849399166332385,0.4743934980902384,0.4543854753475068
0.7029926595143986,0.4874874874874874,0.4712212212212212,0.4907058269529274,0.8023893820744021,0.5114446169140345
0.4364765669113495,0.6088588588588587,0.7294794794794794,0.5936707536145944,0.4954985436977868,0.495788060065926
0.6648785996612083,0.4927427427427426,0.3541041041041041,0.5205417095418317,0.5485742190906395,0.4975879449570086
0.4720496894409938,0.347097097097097,0.7022022022022022,0.9263669183947538,0.5245548249821232,0.5152606519350507
0.4345002823263693,0.5065065065065064,0.7540040040040039,0.5009766817238432,0.4959868845597084,0.5022132305492091
0.4590626764539808,0.3566066066066065,0.279029029029029,0.3791809826115772,0.5030678270575719,0.5017405863578492
0.4345002823263693,0.5065065065065064,0.7547547547547546,0.5009609850532815,0.4959711878891466,0.5019987093848649
0.4347826086956521,0.5065065065065064,0.755005005005005,0.5009609850532815,0.4959868845597084,0.5021050979297835
0.6993224167137211,0.5155155155155154,0.4441941941941942,0.4564312747440571,0.287250815354832,0.5179761759422362
0.4494635798983625,0.4969969969969969,0.7530030030030029,0.4977117742469958,0.5104382859235747,0.5133526344245426
0.4226425748164878,0.4812312312312311,0.7557557557557557,0.5508798855887124,0.4846940021277709,0.5108202382405777
0.4347826086956521,0.5067567567567567,0.7542542542542542,0.5010063309904599,0.4959397945480231,0.5021818372080855
0.4336533032185206,0.5047547547547546,0.7545045045045045,0.5009766817238432,0.4959868845597084,0.5020301027259885
0.432523997741389,0.4887387387387386,0.7424924924924925,0.675162634947765,0.4988401904529361,0.5063030852678027
0.1880293619424054,0.5177677677677677,0.6183683683683683,0.5213492160385091,0.2380208242496119,0.4960775764340652
0.4271597967250141,0.609109109109109,0.7204704704704704,0.7355791199400039,0.5314212463156426,0.4942916441390376
0.4774138904573687,0.5137637637637636,0.7562562562562563,0.4966426565742888,0.4850602577742121,0.7147182447634163
0.3740824392998306,0.3893893893893893,0.6311311311311311,0.463709297661196,0.5171372761044352,0.9965816139665488
0.668266516092603,0.4824824824824824,0.5883383383383383,0.5228002860282192,0.8479428641191551,0.5023649650313061
0.3500846979107849,0.4344344344344343,0.7545045045045045,0.4108777926993041,0.4388196103737551,0.0
0.442970073404856,0.7372372372372371,0.547047047047047,0.0338943439663743,0.434532675235886,0.4885396864154037
0.1764539808018069,0.4989989989989989,0.3971471471471471,0.4819156914383382,0.614072937195877,0.494171302998064
0.4717673630717109,0.3498498498498498,0.7044544544544544,0.8926260529849834,0.4834121073652266,0.4848003906726895
0.686617730095991,0.4572072072072071,0.575075075075075,0.5316043741388632,0.7360203707902402,0.4515007761131555
0.4220779220779221,0.0025025025025024,0.1599099099099099,0.8806303085267801,0.7425379772223869,0.3851945515112406
0.4517221908526256,0.2507507507507507,0.4892392392392392,0.7776671259396202,0.5762265203969513,0.5310706873397631
0.4155844155844156,0.5447947947947946,0.7482482482482482,0.6592444669236269,0.4895163681392469,0.5070198998901233
0.6931112365894975,0.4652152152152151,0.5177677677677678,0.537206341454907,0.829049304986309,0.5232275842824006
0.4435347261434218,0.507007007007007,0.7767767767767767,0.5004272982541814,0.5294835795385179,0.4828627238955648
0.4316770186335403,0.5025025025025024,0.7645145145145145,0.4991000575544587,0.7152972774996947,0.4869682752847201
0.453416149068323,0.4466966966966966,0.7442442442442442,0.6105324659469452,0.5139177145647662,0.4875473080209986
0.6428571428571428,0.3648648648648648,0.6549049049049048,0.5175802710291784,0.5361372237822,0.2782635994209672
0.668266516092603,0.4999999999999999,0.6168668668668669,0.4884472504665399,0.8381760468807227,0.5232572335490172
0.6979107848673066,0.5007507507507507,0.4366866866866866,0.4929801001098767,0.731123009574969,0.5163594188743743
0.4342179559570864,0.5067567567567567,0.7542542542542542,0.5008999424455413,0.4958804960147897,0.5022289272197709
0.4313946922642575,0.6606606606606605,0.6991991991991992,0.6743062943648952,0.4920191150565952,0.4990686642133352
0.3354037267080745,0.4969969969969969,0.7567567567567567,0.5022742731569493,0.8096691490660481,0.4943997767584631
0.4192546583850932,0.5360360360360359,0.7585085085085085,0.7838027800547639,0.5275302160908314,0.5138113260198476
0.3537549407114624,0.4709709709709709,0.7397397397397396,0.3810733034515234,0.3798681479672812,0.0410816750091564
0.2058159232072275,0.5045045045045045,0.3438438438438438,0.5032963008179709,0.435233793187645,0.5031131729947503
0.3831168831168831,0.2967967967967967,0.6018518518518519,0.172400020928894,0.2734865793466697,0.9205678706594344
0.4330886504799548,0.5050050050050049,0.7545045045045045,0.5000610426077402,0.49647522542163,0.5020301027259885
0.4339356295878035,0.5055055055055054,0.7542542542542542,0.5004726441913598,0.4961996616495456,0.5021818372080855
0.1747600225861095,0.5115115115115114,0.5748248248248248,0.498930882327293,0.7301602804471807,0.4945218619739435
0.4500282326369283,0.5307807807807807,0.7727727727727727,0.2887611838777753,0.5065158623576399,0.532307236165129
0.5511010728402033,0.974224224224224,0.4076576576576576,0.9946892931266024,0.5424246123794408,1.0
0.4345002823263693,0.5065065065065064,0.7542542542542542,0.5008842457749795,0.4959554912185848,0.5022585764863875
0.4345002823263693,0.5067567567567567,0.7542542542542542,0.5009766817238432,0.4959101452814064,0.5022289272197709
0.4305477131564088,0.292042042042042,0.6306306306306306,0.240157315520519,0.4540663097127509,0.4986413659591537
0.525691699604743,0.5122622622622621,0.730980980980981,0.5013115440291609,0.7230339920121387,0.5040288121108534
0.4096555618294749,0.5105105105105104,0.730980980980981,0.5400125573364494,0.5636674398730314,0.0903587561260617
0.2340485601355166,0.5127627627627627,0.6559059059059058,0.4974519071454732,0.1104871200097668,0.5180686118911
0.4486166007905138,0.5290290290290289,0.7389889889889889,0.4818860421717216,0.4456267331740412,0.2282383103406177
0.4672501411631846,0.3598598598598598,0.252002002002002,0.7875874217346566,0.5648586427612188,0.487669393236479
0.3616600790513834,0.3558558558558558,0.811061061061061,0.3445087814151421,0.40414740917732,0.0
0.6629023150762281,0.5025025025025024,0.3516016016016016,0.5148943962886094,0.6016516385579992,0.5077524111830057
0.4401468097120271,0.7474974974974974,0.4792292292292292,0.2415455988279819,0.4965048746882466,0.5397683869054886
0.6092603049124788,0.3753753753753753,0.6976976976976976,0.5236531384620751,0.4672201196435112,0.4241397352494899
0.4345002823263693,0.5065065065065064,0.7542542542542542,0.5008702931789246,0.4959397945480231,0.5021975338786473
0.717673630717109,0.4989989989989989,0.6696696696696697,0.540272424437972,0.3141252594310829,0.5085163158170117
0.691699604743083,0.5257757757757757,1.0,0.5476132340373581,0.1801663847079547,0.5677119486544465
0.435064935064935,0.5062562562562561,0.7547547547547546,0.5009470324572266,0.4960008371557633,0.5021521879414689
0.4345002823263693,0.5067567567567567,0.7552552552552552,0.5008999424455413,0.4959868845597084,0.5021818372080855
0.4364765669113495,0.5087587587587586,0.755005005005005,0.5012051554842423,0.4959258419519682,0.5018923208399463
0.4347826086956521,0.5067567567567567,0.7542542542542542,0.5007168146223206,0.495864799344228,0.5021364912709071
0.2120271033314511,0.4979979979979979,0.622122122122122,0.513169506601322,0.8459441547342903,0.4901564434832656
0.4059853190287973,0.4862362362362361,0.7790290290290289,0.4803599769782165,0.5153827371505311,0.5081640127666254
0.4336533032185206,0.5052552552552552,0.7547547547547546,0.5013429373702845,0.4956049322427054,0.5021207946003453
0.396386222473179,0.5227727727727727,0.7357357357357357,0.3787693810279575,0.4609937736540105,0.7783385946247623
0.6335403726708074,0.2332332332332332,0.6926926926926926,0.6235955840033486,0.4273139508519804,0.4082983065036538
0.5573122529644269,0.5490490490490489,0.5342842842842843,0.5011441128765021,0.4306242042660062,0.1732703141078187
0.5409373235460192,0.0,0.5295295295295295,0.565681845928458,0.5597764096482202,0.310447006296109
0.4345002823263693,0.5067567567567567,0.7542542542542542,0.5009766817238432,0.4959397945480231,0.5022132305492091
0.6033314511575381,0.8063063063063062,0.6614114114114114,0.7461691403456755,0.5456302213230549,0.0
0.4432523997741389,0.4874874874874874,0.7552552552552552,0.4448628285400352,0.5097057746306922,0.6923156077227619
0.6837944664031621,0.4992492492492492,0.4266766766766766,0.481777909552296,0.3196487433943178,0.513169506601322
0.388481084133258,0.5212712712712712,0.7429929929929929,0.4401782444146014,0.4404224148455622,0.7571882030800355
0.4446640316205533,0.4914914914914914,0.7535035035035034,0.2627727296510107,0.4727453476812529,0.5239443989047212
0.4345002823263693,0.5067567567567567,0.7547547547547546,0.5009313357866648,0.4959397945480231,0.5021661405375237
0.1973461321287408,0.915165165165165,0.6376376376376376,0.2830999180284982,0.5418298829726006,0.4011109754608717
0.4136081309994353,0.7257257257257256,0.5863363363363363,0.1977170064705164,0.5031585189319288,0.4877147391736575
0.4345002823263693,0.5067567567567567,0.7542542542542542,0.5009313357866648,0.496016533826325,0.5022742731569493
0.6459627329192547,0.5005005005005004,0.335085085085085,0.5122695641557807,0.4441006679805361,0.5096133386818285
0.5175042348955392,0.7822822822822821,0.6366366366366366,0.5183424315886774,0.5016481504089855,0.4751399619791757
0.4345002823263693,0.5065065065065064,0.7542542542542542,0.5008999424455413,0.4960008371557633,0.5020301027259885
0.5189158667419537,0.614114114114114,0.6726726726726726,0.3362994227113382,0.361051328112737,0.8524286237508066
0.4424054206662902,0.361111111111111,0.7372372372372371,0.2823988000767393,0.4909499973838882,0.5204806669340915
0.4328063241106719,0.5067567567567567,0.7530030030030029,0.5014196766485864,0.4960775764340652,0.5026091354622669
0.4686617730095991,0.2565065065065064,0.4807307307307307,0.2855730156792298,0.5057676543941957,0.5376318956345815
0.295313382269904,0.1856856856856856,0.5965965965965966,0.3732458970647226,0.5993006261227479,0.1655022062542512
0.6739130434782609,0.4849849849849849,0.3668668668668668,0.5037079024015906,0.4875787013621221,0.5080733208922685
0.471485036702428,0.5663163163163162,0.7567567567567567,0.4522646807471615,0.4255437152275145,0.0427298254181418
0.6482213438735178,0.8896396396396395,0.7174674674674675,0.2123358389870415,0.6094790449448,1.0
0.4133258046301524,0.7387387387387386,0.5805805805805806,0.6079529797512949,0.5089436140711932,0.5031445663358739
0.5220214568040655,0.5065065065065064,0.7535035035035034,0.5043026318084308,0.3496067111987024,0.5135357622477632
0.4345002823263693,0.5065065065065064,0.7547547547547546,0.500915639116103,0.4960479271674486,0.5019690601182483
0.4342179559570864,0.5062562562562561,0.7547547547547546,0.5008232031672393,0.4958804960147897,0.5020144060554267
0.432523997741389,0.4652152152152151,0.767017017017017,0.1874932417112859,0.419073198807053,0.5028690025637895
0.5759457933370977,0.5015015015015014,0.7112112112112111,0.5251042084517851,0.2374400474388265,0.5593787606606554
0.4206662902315076,0.5052552552552552,0.7702702702702702,0.4619547587072919,0.4778572300608682,0.7620105690915115
0.4359119141727837,0.5588088088088087,0.7224724724724725,0.4598950067146868,0.4244449482881909,1.0
0.370412196499153,0.562062062062062,0.7337337337337337,0.4583985907877984,0.3720389975059734,0.0454453494253275
0.4601919819311124,0.5017517517517517,0.7322322322322322,0.4823900797042049,0.496626959903727,0.921820116155362
0.4342179559570864,0.6911911911911911,0.6524024024024023,0.1078326386103214,0.4460679840242775,0.4740568917104139
0.6948051948051948,0.4389389389389388,0.9847347347347346,0.4617576782880164,0.9665033050211904,0.5466662015801315
0.577922077922078,0.5072572572572571,0.7117117117117117,0.5048380626820378,0.2459563632558383,0.5100877269476952
0.7075098814229248,0.522022022022022,0.5708208208208208,0.4756126061705356,0.2319322601461534,0.5229973664474946
0.4342179559570864,0.5067567567567567,0.7547547547547546,0.5010063309904599,0.4960008371557633,0.5021207946003453
0.1843591191417278,0.5030030030030029,0.4086586586586586,0.4791391248234125,0.6644173919109825,0.4955892355721436
0.5496894409937888,0.3323323323323323,0.6101101101101101,0.5483300486596787,0.5304445645917993,1.0
0.1479390175042348,0.5140140140140139,0.4331831831831831,0.5049148019603398,0.148912569544971,0.4875019620838202
0.4308300395256917,0.5437937937937937,0.7532532532532532,0.5445768003209097,0.5160088598984949,0.1565899855241815
0.6304347826086956,0.986236236236236,0.3110610610610611,0.3437152275145194,0.2973542389730889,0.000610426077402
0.435064935064935,0.5192692692692692,0.7439939939939939,0.5561748957915482,0.4600781345379074,0.3347733575178331
0.458498023715415,0.5002502502502502,0.7735235235235235,0.4844951776339885,0.5759056106876885,0.8715663533146136
0.6945228684359119,0.4904904904904904,0.4582082082082082,0.5376022463679648,0.8252803599769782,0.5282016847759736
0.4345002823263693,0.5065065065065064,0.7542542542542542,0.5008999424455413,0.4959101452814064,0.5021207946003453
0.5604178430265386,0.601101101101101,0.6426426426426426,0.4902331827615676,0.4893175436454645,0.7273523204911314
0.4593450028232637,0.3583583583583583,0.7107107107107107,0.1319584212637564,0.5109423234560581,0.5331757852695467
0.5251270468661773,0.5417917917917917,0.4954954954954955,0.160236845318032,1.0,0.0
0.4426877470355731,0.5297797797797796,0.7324824824824825,0.9498997157158552,0.5517030887559516,0.4898512304445646
0.6264822134387352,0.988238238238238,0.7937937937937938,0.3256466156234194,0.4393393445768003,0.4789716936707536
0.4020327498588368,0.4934934934934934,0.7887887887887888,0.536976123620001,0.4119155170308876,0.7198440797390865
0.4539808018068887,0.5122622622622621,0.7922922922922923,0.4180965170832098,0.3434414078169419,0.1259012505014214
0.4333709768492377,0.5050050050050049,0.7545045045045045,0.500915639116103,0.4959554912185848,0.5020144060554267
0.7049689440993789,0.4979979979979979,0.565065065065065,0.4690810471423339,0.2262396009557528,0.5394788705373493
0.2058159232072275,0.5025025025025024,0.6268768768768769,0.514467098034428,0.7629401608036694,0.4911802152187941
0.4748729531338227,0.2740240240240239,0.3941441441441441,0.5533965851021155,0.4962310549906692,0.4988558871234979
0.458498023715415,0.6661661661661661,0.547047047047047,0.5125747771944817,0.3113940387533355,0.0
0.4359119141727837,0.5072572572572571,0.7562562562562563,0.5010534210021452,0.4960479271674486,0.5026405288033905
0.4345002823263693,0.5065065065065064,0.7545045045045045,0.5009766817238432,0.4959554912185848,0.5020301027259885
0.3402032749858836,0.8018018018018017,1.0,0.6764741789769259,0.0104225892530129,1.0
0.4265951439864483,0.507007007007007,0.7605105105105104,0.5064705164204615,0.4887681601758027,0.4912255611559726
0.4460756634669678,0.4867367367367367,0.7522522522522521,0.5428362139630605,0.4899279697228665,0.2380365209201737
0.4271597967250141,0.7219719719719718,0.6126126126126126,0.1402148699792455,0.4647173727261628,0.4899576189894832
0.4576510446075663,0.3931431431431431,0.7334834834834835,0.6572614542093238,0.5002145211643442,0.5044107644278564
0.4548277809147374,0.5127627627627627,0.6323823823823823,0.7592479550726408,0.4404381115161239,0.0
0.455957086391869,0.4864864864864864,0.7682682682682682,0.4893175436454645,0.5804838062682037,0.7882745870903605
0.4505928853754941,0.376126126126126,0.6926926926926926,0.3259675253326822,0.4608873851090919,0.5045781955805152
0.2625635234330886,0.5112612612612611,0.6996996996996997,0.5165878926347733,0.751572283167937,0.4807262326246577
0.328910220214568,0.4952452452452451,0.7324824824824825,0.4346844097179831,0.5345501159809547,0.6545598827981931
0.4237718802936194,0.5375375375375374,0.7530030030030029,0.5213195667718925,0.4281371540192197,0.3149188133317055
0.4415584415584415,0.3368368368368367,0.7057057057057057,0.7083541168878734,0.5034637319706298,0.4703018992971379
0.137492941840768,0.5410410410410409,0.5037537537537538,0.4717215759457244,0.7683746969670544,0.4970542581579085
0.4333709768492377,0.5050050050050049,0.7545045045045045,0.5009313357866648,0.4959397945480231,0.5020911453337287
0.4720496894409938,0.2775275275275274,0.4281781781781781,0.8667596839736993,0.5726860491480196,0.5102098121631756
0.5321852060982496,0.4967467467467467,0.7507507507507507,0.3837295289254757,0.3954340129410328,0.2326490747684741
0.4345002823263693,0.5067567567567567,0.755005005005005,0.5010063309904599,0.4959397945480231,0.5022585764863875
0.4824957651044607,0.4879879879879879,0.772022022022022,0.5086680502991088,0.4547831243350716,0.1652719884193452
0.4345002823263693,0.5067567567567567,0.7545045045045045,0.5010377243315834,0.4959868845597084,0.5021207946003453
0.4347826086956521,0.5065065065065064,0.7540040040040039,0.5010063309904599,0.4960008371557633,0.5022132305492091
0.4345002823263693,0.5065065065065064,0.7552552552552552,0.5008999424455413,0.4959101452814064,0.5021818372080855
0.4347826086956521,0.5067567567567567,0.7545045045045045,0.500992378394405,0.4959258419519682,0.5021661405375237
0.4556747600225861,0.5360360360360359,0.7592592592592592,0.4333728656888222,0.4144950032265378,0.0422868304933986
0.7865612648221344,0.3893893893893893,0.8025525525525525,0.0591502869002563,0.821923016551267,1.0
0.5352907961603613,0.4972472472472471,0.7632632632632632,0.4947346390637808,0.4948567242792612,0.2483213282871444
0.4347826086956521,0.5065065065065064,0.7545045045045045,0.5009470324572266,0.4959868845597084,0.5020597519926051
0.4141727837380011,0.4839839839839839,0.7787787787787788,0.3776095714808937,0.381333170553046,0.1922231717738982
0.4345002823263693,0.5067567567567567,0.7542542542542542,0.500992378394405,0.4960322304968868,0.5021661405375237
0.4088085827216262,0.5265265265265264,0.7690190190190189,0.4606571672741859,0.59837103441059,0.8070896628703979
0.3853754940711462,0.5768268268268267,0.771021021021021,0.4832132828714442,0.5483003993930621,0.8943195493311474
0.4155844155844156,0.4997497497497496,0.7687687687687688,0.4946735964560406,0.8805849625896018,0.4863561051328112
0.4345002823263693,0.5067567567567567,0.7545045045045045,0.5008702931789246,0.4959397945480231,0.5021661405375237
0.2380011293054771,1.0,0.7967967967967968,0.6273645290126795,0.263353506461796,0.7933411235327974
0.4178430265386787,0.5983483483483483,0.776026026026026,0.4289010586532257,0.5307811709716239,1.0
0.3379446640316206,0.5035035035035034,0.756006006006006,0.5297277499694787,0.4618640668329351,0.428107504752603
0.1908526256352343,0.4949949949949949,0.4869869869869869,0.4947206864677259,0.1559185168390394,0.5164501107487312
0.4322416713721062,0.5843343343343342,0.7617617617617617,0.3046322618902279,0.5069292080157665,0.523806617018679
0.3150762281197063,0.936186186186186,0.7024524524524525,0.4639081221549784,0.6440605542668782,0.2224392626052985
0.4347826086956521,0.5067567567567567,0.7540040040040039,0.5008702931789246,0.4959554912185848,0.5022289272197709
0.435347261434218,0.5072572572572571,0.756006006006006,0.5022585764863875,0.496398486143328,0.4697071698902977
0.4347826086956521,0.507007007007007,0.7552552552552552,0.5008092505711844,0.4959101452814064,0.5021364912709071
0.6309994353472614,0.8818818818818817,0.6669169169169169,0.3151472870921046,0.6100755184261472,1.0
0.5477131564088086,0.4974974974974974,0.7374874874874874,0.5051118823796152,0.6853253570992552,0.5114917069257199
0.7035573122529644,0.5007507507507507,0.5540540540540541,0.5076303259675253,0.2390742452517572,0.5106057170762335
0.4463579898362507,0.5673173173173173,0.7452452452452452,0.4310515025201876,0.5678183371993651,7.67392783019849e-05
0.4347826086956521,0.5067567567567567,0.7545045045045045,0.500915639116103,0.4959554912185848,0.5020911453337287
0.207227555053642,0.5050050050050049,0.3518518518518518,0.4903099220398695,0.467464290074472,0.4961543157123672
0.4181253529079616,0.5307807807807807,0.7542542542542542,0.5037079024015906,0.5155048223660115,0.1062141374679526
0.5324675324675325,0.1939439439439438,0.7067067067067067,0.6464255192981845,0.4255890611646929,0.7923644418089542
0.4198193111236589,0.372122122122122,0.4499499499499499,0.3259221793955038,0.1069762980274517,0.623412456180128
0.1979107848673066,0.4914914914914914,0.5790790790790791,0.5169384516106528,0.9112440483457452,0.4925981477928737
0.4062676453980802,0.7482482482482481,0.4379379379379379,0.3573137764445297,0.5514275249838673,0.4924760625773933
0.4443817052512704,0.5395395395395395,0.7114614614614614,0.4651289743097825,0.4043305370005406,0.1967089314055496
0.1357989836250706,0.4982482482482481,0.4847347347347347,0.5205417095418317,0.6978233950154351,0.5068524687374645
0.4339356295878035,0.5055055055055054,0.7542542542542542,0.5015871078012453,0.4954375010900466,0.5021207946003453
0.4333709768492377,0.5050050050050049,0.7542542542542542,0.500305213038701,0.4964141828138898,0.5020597519926051
0.4088085827216262,0.5885885885885884,0.7752752752752752,0.4145089558225927,0.652882083122591,0.9992064460993774
0.4424054206662902,0.4184184184184183,0.7257257257257257,0.6704309608106458,0.4934527443012365,0.5041822906674573
0.4342179559570864,0.5060060060060059,0.7545045045045045,0.5009313357866648,0.4958944486108446,0.5022289272197709
0.3935629587803501,0.4877377377377376,1.0,0.4761480370441425,0.8696286865374889,0.6219631302649249
0.4147374364765669,0.7422422422422421,0.5928428428428428,0.522967717180878,0.6827301742330433,0.0
0.4912478825522304,0.5698198198198198,0.0683183183183183,0.5033573434257111,0.0325810558627064,0.3408462249507299
0.7052512704686618,0.5097597597597596,0.5285285285285285,0.4980466365523135,0.2532814761846625,0.4901407468127038
0.4336533032185206,0.5052552552552552,0.7545045045045045,0.5018155815616443,0.4954514536861015,0.5019987093848649
0.4328063241106719,0.347097097097097,0.6461461461461461,0.0099656417322148,0.5099952909988315,0.4605961246664457
0.6888763410502541,0.5042542542542542,0.3901401401401401,0.4658928789437885,0.4044840155571446,0.5252402462633203
0.4432523997741389,0.3303303303303302,0.6463963963963963,0.3518338943439664,0.5133840277656662,0.5217765142926906
0.5180688876341051,0.5072572572572571,0.7332332332332332,0.5224340303817779,0.2590944765160368,0.5106214137467953
0.6885940146809713,0.4862362362362361,0.606106106106106,0.5235467499171564,0.2350750824075204,0.4674939393410886
0.429983060417843,0.6033533533533533,0.7292292292292292,0.6355599351204283,0.4904930498630901,0.4855172052950102
0.2241671372106154,0.4999999999999999,0.6306306306306306,0.4811221375377156,0.0670404799693042,0.5137188900709838
0.334274421230943,1.0,0.6486486486486486,0.4962310549906692,0.3634930324223451,0.564079041456651
0.4347826086956521,0.5067567567567567,0.7542542542542542,0.500915639116103,0.4959258419519682,0.5022585764863875
0.4345002823263693,0.5067567567567567,0.7545045045045045,0.5008545965083628,0.496016533826325,0.5020754486631669
0.4991530208921513,0.5953453453453452,0.6231231231231231,0.6115248443413502,0.5552121666637598,0.0416310584788182
0.3924336533032185,0.7282282282282281,0.637137137137137,0.1406875141706053,0.4511048712000977,0.4643668137502834
0.4102202145680406,0.7427427427427427,0.4241741741741741,0.3759317718052915,0.4807715785618361,0.5158710780124527
0.4545454545454545,0.5560560560560559,0.7292292292292292,0.6050700245914505,0.4697071698902977,0.0080122782845283
0.4345002823263693,0.5065065065065064,0.7545045045045045,0.5008232031672393,0.4958944486108446,0.5020754486631669
0.3825522303783173,0.5105105105105104,0.772022022022022,0.4800390672689537,0.2088110644086715,0.5354047124893175
0.4311123658949746,0.7254754754754753,0.6083583583583583,0.3404346233671103,0.4974362104749115,0.5035561679194935
0.4731789949181254,0.31006006006006,0.652152152152152,0.812660236845318,0.5803931143938469,0.4931946212742208
0.4198193111236589,0.4369369369369368,0.7087087087087086,0.4941242129863787,0.4321363168634564,0.5886792123759527
0.4234895539243365,0.6611611611611611,0.7157157157157157,0.148211451593212,0.4786193906203673,0.509416258262553
0.4520045172219085,0.4124124124124123,0.7482482482482482,0.6561923365366168,0.5068367720669027,0.4812302701571411
0.6637492941840768,0.4947447447447446,0.3430930930930931,0.5031899122730523,0.5197167623000855,0.5218829028376092
0.6767363071710898,0.5040040040040039,0.5798298298298298,0.4721488741999058,0.1592915569353122,0.4772311073129044
0.4215132693393563,0.751251251251251,0.592092092092092,0.189019306904791,0.4884019045293615,0.5188935591328462
0.4347826086956521,0.5067567567567567,0.7547547547547546,0.5009313357866648,0.4959397945480231,0.5021818372080855
0.4209486166007905,0.6108608608608608,0.6879379379379379,0.1889722168931056,0.4291748783508031,0.4768648516664632
0.4601919819311124,0.5518018018018017,0.7595095095095095,0.5064548197498997,0.5415857125416398,0.953454139560842
0.4011857707509881,0.5082582582582582,0.6183683683683683,0.5244466923626977,0.6170797216457087,0.993407398364058
0.2944664031620553,0.8928928928928928,0.6333833833833833,0.2692135968048555,0.6683869054886025,0.0
0.2648221343873518,0.7067067067067065,0.6186186186186186,0.3863997069954829,0.5611036503479429,0.0
0.4237718802936194,0.5503003003003002,0.802052052052052,0.4388963496520571,0.642168233426932,0.8809965641732215
0.4822134387351778,0.4839839839839839,0.6941941941941941,0.4924760625773933,0.445488951287999,0.8240595078221742
0.1727837380011292,0.5202702702702702,0.54004004004004,0.4849538692292934,0.1102133003121893,0.4979542006034498
0.4525691699604743,0.2657657657657657,0.5833333333333333,0.4491968536895896,0.5238223136892408,0.5244623890332595
0.4345002823263693,0.5067567567567567,0.755005005005005,0.500992378394405,0.4959554912185848,0.5021521879414689
0.4342179559570864,0.5060060060060059,0.7547547547547546,0.5020597519926051,0.4952386765962642,0.5021050979297835
0.4607566346696781,0.3248248248248248,0.7059559559559558,0.3682543558260809,0.5200830179465267,0.5108045415700159
0.6185770750988142,0.5040040040040039,0.6831831831831832,0.5060275214957183,0.824914104330537,0.5300486596787415
0.5369847543760587,1.0,0.5247747747747747,0.5625529762631459,0.4841742679247257,0.0175802710291783
0.4762845849802372,0.4301801801801801,0.7414914914914914,0.5559150286900256,0.490737220294051,0.586436332560127
0.4302653867871259,0.5265265265265264,0.744994994994995,0.7335647138845771,0.5077210178418822,0.5147566144025673
0.4333709768492377,0.5052552552552552,0.7545045045045045,0.5015417618640668,0.4956206289132672,0.5020457993965503
0.6716544325239977,0.5075075075075074,0.6346346346346345,0.4775973629593456,0.2047212096900779,0.5094459075291696
0.1705251270468662,0.5085085085085084,0.4359359359359359,0.5070652458273017,0.6102882955159844,0.5047159774665574
0.6970638057594579,0.5037537537537536,0.4206706706706706,0.5036172105272337,0.3302858538116748,0.5038456842876328
0.4971767363071711,0.9994994994994992,0.6709209209209209,0.5700158710780124,0.5663236653469836,1.0
0.4336533032185206,0.5055055055055054,0.7547547547547546,0.5012051554842423,0.4958177093325427,0.5021050979297835
0.3831168831168831,0.7552552552552552,0.6714214214214214,0.5013429373702845,0.5,0.6286778171163472
0.3562958780350085,0.4341841841841841,0.7024524524524525,0.5213649127090709,0.4165094092819645,1.0
0.6583850931677019,0.5067567567567567,0.6263763763763763,0.5220677747353367,0.2276435809337775,0.5206480980867503
0.4342179559570864,0.5062562562562561,0.7547547547547546,0.5011144636098854,0.4959397945480231,0.5021975338786473
0.4099378881987577,0.5750750750750749,0.7422422422422421,0.4579119940003837,0.5877478765892878,0.9839754434309432
0.4088085827216262,0.5042542542542542,0.7692692692692692,0.5032649074768474,0.6866996878106633,0.476039904424717
0.4339356295878035,0.5062562562562561,0.7547547547547546,0.500838899837801,0.4959397945480231,0.5020754486631669
0.3294748729531338,0.507007007007007,0.7264764764764764,0.5568620611472522,0.4373545877879903,0.4330816052461761
0.4181253529079616,0.6273773773773773,0.6849349349349348,0.2008144827947049,0.4876536965659173,0.4952683258628809
0.6900056465273856,0.5022522522522521,0.4254254254254254,0.4852887315346111,0.3418839492823133,0.5116887873449953
0.3887634105025409,0.528028028028028,0.7630130130130129,0.4954985436977868,0.5537942340896803,0.5454924394370128
0.4731789949181254,0.2932932932932932,0.6226226226226226,0.7059577585154437,0.0,0.5429896925196644
0.3692828910220215,0.6539039039039038,0.6901901901901901,0.5613635174494654,0.3986849678218253,1.0
0.5666290231507622,0.396146146146146,0.6191191191191191,0.433006610042381,0.1275947468475853,0.8476376510804542
0.4345002823263693,0.5065065065065064,0.7542542542542542,0.5008999424455413,0.4959258419519682,0.5021661405375237
0.4771315640880858,0.2980480480480479,0.3538538538538539,0.8481713378795541,0.5443326298899489,0.523119451662975
0.165725578769057,0.5032532532532532,0.4469469469469469,0.5000906918743568,0.7020667282906325,0.5013882833074629
0.4788255223037831,0.5235235235235234,0.761011011011011,0.600980169872857,0.4813052653609362,0.0958682874932417
0.4217955957086391,0.5437937937937937,0.7389889889889889,0.4030643389085582,0.4801001098766939,0.3372761044351814
0.4085262563523433,0.6313813813813813,0.7114614614614614,0.8710466191115684,0.5150932207823918,0.4995727017458186
0.3935629587803501,0.4824824824824824,0.7577577577577577,0.5018609274988227,0.5116591380783787,0.4875787013621221
0.4138904573687182,0.5237737737737737,0.7742742742742742,0.4532867084081832,0.6627849381725588,0.8662870397823395
0.6705251270468662,0.4999999999999999,0.3578578578578578,0.5439820709140695,0.7064007534401869,0.5057537017981408
0.4347826086956521,0.5065065065065064,0.7537537537537538,0.5008702931789246,0.4959711878891466,0.5021207946003453
0.4565217391304348,0.373123123123123,0.7292292292292292,0.786335176238729,0.5228299352948358,0.4966130073076721
0.722755505364201,0.5065065065065064,0.5080080080080079,0.509111045223852,0.2376231752620472,0.5048537593525996
0.5897797854319593,0.3335835835835835,0.6351351351351351,0.5625372795925841,0.5238223136892408,0.2769189179761759
0.7018633540372671,0.4982482482482481,0.5030030030030029,0.4970996040950869,0.2647103964281354,0.5601269686240996
0.4624505928853755,0.2752752752752752,0.5407907907907907,0.1759090988367023,0.5022585764863875,0.482159861869299
0.7024280067758328,0.4954954954954954,0.5503003003003003,0.4968868270052496,0.733350192720233,0.4803756736487782
0.4568040654997177,0.4634634634634634,0.7072072072072071,0.5440727627884263,0.2874496398486143,1.0
0.435064935064935,0.5065065065065064,0.7540040040040039,0.5010220276610217,0.4959258419519682,0.5021661405375237
0.4472049689440994,0.3438438438438438,0.6786786786786786,0.0564487154891257,0.4666707361738493,0.5263704065437675
0.2947487295313382,0.5087587587587586,0.7247247247247247,0.5157786420635889,0.8119277255524355,0.463480823900797
0.4167137210615471,0.6934434434434433,0.7094594594594594,0.7515408898268134,0.5013586340408462,0.5381516298376267
0.6075663466967814,0.4907407407407406,0.6919419419419419,0.5383801035980257,0.7969426373894692,0.4776270122259622
0.435347261434218,0.507007007007007,0.7537537537537538,0.5008999424455413,0.4959868845597084,0.5021818372080855
0.3780350084697911,1.0,0.4527027027027027,0.9273436001185972,0.6140275912586985,1.0
0.4209486166007905,0.4999999999999999,0.7790290290290289,0.5096761253640756,0.5736627308718628,0.4880356488829203
0.4345002823263693,0.507007007007007,0.7547547547547546,0.5009609850532815,0.4960008371557633,0.5022132305492091
0.1775832862789384,0.5110110110110109,0.5568068068068068,0.49801524321119,0.7917993616687304,0.5008842457749795
0.4678147939017504,0.564064064064064,0.7640140140140139,0.5285679404224148,0.505586270645482,1.0
0.6106719367588933,0.4944944944944944,0.9231731731731732,0.4419938259762457,0.99899366900954,0.4883862078587997
0.3904573687182383,0.5210210210210209,0.7652652652652652,0.4686554929626593,0.2817883739993372,0.176993913179971
0.4457933370976849,0.5075075075075074,0.7530030030030029,0.5001063885449186,0.4968100877269477,0.4834888466435286
0.2188029361942405,0.8996496496496496,0.7082082082082082,0.404911313811326,0.6160123480475086,0.3196801367354414
0.3294748729531338,0.5035035035035034,0.7187187187187187,0.4850288644330885,0.4033538552766974,0.4927062804122992
0.6431394692264257,0.7802802802802802,0.6333833833833833,0.6811901564434832,0.3462493677729912,1.0
0.3969508752117447,0.5050050050050049,0.756006006006006,0.3803878821703263,0.4674189441372935,0.4863107591956328
0.4446640316205533,0.314064064064064,0.6373873873873874,0.2829481835464011,0.4744074506862933,0.4959711878891466
0.6852060982495765,0.4997497497497496,0.4106606606606606,0.4424368209009889,0.2632924638540558,0.5509409281964526
0.4003387916431394,0.7434934934934934,0.4106606606606606,0.5809581945340705,0.5132148525385004,0.5475678881001796
0.4345002823263693,0.5067567567567567,0.7547547547547546,0.5009766817238432,0.4959868845597084,0.5022132305492091
0.435064935064935,0.4977477477477476,0.7279779779779779,0.7397596665329542,0.5206777473533669,0.5109266267854963
0.4294184076792772,0.7289789789789789,0.5725725725725725,0.693154507560563,0.517840138130701,0.5034340827040131
0.4398644833427442,0.256006006006006,0.6038538538538538,0.7593996895547377,0.5122381708146572,0.5578526954671503
0.4260304912478825,0.4592092092092091,0.7630130130130129,0.3884908523292115,0.4765753352983239,0.5114306643179797
0.4345002823263693,0.5065065065065064,0.7545045045045045,0.5009766817238432,0.4960479271674486,0.5020911453337287
0.4378881987577639,0.617117117117117,0.7755255255255256,0.9089244292516176,0.5531681113417165,0.4968414810680712
0.6236589497459063,0.4777277277277276,0.6586586586586586,0.5074471981443047,0.3012138758567766,0.518679037968502
0.336815358554489,0.3328328328328327,0.7835335335335334,0.3206568184592846,0.509721471301254,0.0
0.4313946922642575,0.568068068068068,0.772022022022022,0.3883216771020458,0.5249210806285645,0.2617820953311126
0.5344438170525128,0.4622122122122121,0.6131131131131131,0.6131572980797739,0.4540802623088058,0.0224479829778327
0.4599096555618295,0.5437937937937937,0.7532532532532532,0.4978635087290929,0.4351274046427263,0.0774177232851388
0.4339356295878035,0.5055055055055054,0.7545045045045045,0.5007778572300609,0.4960322304968868,0.5020457993965503
0.549407114624506,0.4917417417417417,0.725975975975976,0.513322985157926,0.9085581736051764,0.460032788600729
0.2893845285149633,0.7595095095095095,0.5858358358358358,0.3526431449151508,0.5827737760957148,0.0
0.435064935064935,0.5067567567567567,0.7545045045045045,0.5008545965083628,0.4959711878891466,0.5022132305492091
0.435064935064935,0.5065065065065064,0.7542542542542542,0.5008999424455413,0.4959397945480231,0.5020754486631669
0.5931677018633541,0.307057057057057,0.5830830830830831,0.5503148054484888,0.4812913127648813,0.1879955351692624
0.653020892151327,0.2812812812812812,0.4917417417417417,0.4106493189389051,0.9983675462615764,0.0
0.4347826086956521,0.5067567567567567,0.7552552552552552,0.500992378394405,0.4959258419519682,0.5022289272197709
0.3670242800677583,0.5808308308308308,0.7329829829829829,0.4349442768195057,0.5536721488741999,1.0
0.6970638057594579,0.4974974974974974,0.5685685685685685,0.5256989378586253,0.1607565795210771,0.5302317875019621
0.4378881987577639,0.3243243243243242,0.6458958958958958,0.8182761567574166,0.5351291487172332,0.4749725308265169
0.1668548842461886,0.4944944944944944,0.5085085085085085,0.4990233182761567,0.2398677991523798,0.503601513856672
0.4345002823263693,0.5065065065065064,0.7542542542542542,0.500915639116103,0.4958944486108446,0.5022289272197709
0.6298701298701299,0.5175175175175174,0.6651651651651651,0.5219299928492945,0.8251582747614978,0.5162373336588939
0.3551665725578769,0.502002002002002,0.7522522522522521,0.4993442279854195,0.4290370964647609,0.4669306032753719
0.5355731225296443,0.4802302302302301,0.7004504504504504,0.4623367110242949,0.5385492788251914,0.324380417531437
0.5118577075098815,0.5007507507507507,0.766016016016016,0.5121474789403003,0.7258890419798734,0.5344123340949125
0.4062676453980802,0.4984984984984984,0.7567567567567567,0.5014493259152031,0.3124614123515357,0.5063327345344193
0.525974025974026,0.5140140140140139,0.7590090090090089,0.5081343635000087,0.3001918481957549,0.5237612710815006
0.339356295878035,0.3951451451451451,0.5873373373373373,0.6040323002598671,0.5562812843364668,0.978101400491829
0.6123658949745906,0.3078078078078077,0.6661661661661662,0.4234072239566074,0.4062542511816105,0.6649824720512061
0.4062676453980802,0.7302302302302301,0.5908408408408408,0.6269389748330049,0.4858538116748347,0.5081797094371872
0.4387351778656126,0.2632632632632632,0.4692192192192192,0.3464464481922668,0.5013586340408462,0.5174128398765195
0.5206098249576511,0.4852352352352351,0.7357357357357357,0.4105429303939864,0.4217887228142386,0.7690601182482515
0.4336533032185206,0.5050050050050049,0.7547547547547546,0.5008702931789246,0.4960322304968868,0.5020597519926051
0.4392998306041784,0.5055055055055054,0.755005005005005,0.3170849538692293,0.5061496067111987,0.5079808849434048
0.14257481648786,0.4614614614614614,0.4744744744744744,0.5648272494200952,0.2372115736784275,0.5544953520414392
0.4415584415584415,0.5080080080080079,0.7179679679679679,0.5424246123794408,0.3427995883984164,0.8917714564766206
0.4345002823263693,0.5067567567567567,0.7542542542542542,0.5007778572300609,0.4959554912185848,0.5022428798158257
0.4505928853754941,0.3203203203203202,0.6831831831831832,0.2168686886303782,0.4290981390725011,0.4853201248757346
0.4548277809147374,0.3413413413413413,0.6826826826826826,0.486982227880775,0.4914383382458098,0.4982140677049723
0.3929983060417843,0.4857357357357356,0.7502502502502502,0.5012505014214207,0.503829987617071,0.4884019045293615
0.4345002823263693,0.5065065065065064,0.7547547547547546,0.5009766817238432,0.4959868845597084,0.5022428798158257
0.4548277809147374,0.2392392392392391,0.4679679679679679,0.6140572405253153,0.5141008423879868,0.4902645761026911
0.4401468097120271,0.5893393393393392,0.7359859859859859,0.2496328723163053,0.4940788670492003,0.50903430594555
0.4347826086956521,0.5067567567567567,0.7552552552552552,0.5009609850532815,0.4960479271674486,0.5025027469173483
0.4345002823263693,0.5065065065065064,0.7545045045045045,0.5009609850532815,0.4960008371557633,0.5020144060554267
0.461038961038961,0.5275275275275274,0.5990990990990991,0.5163594188743743,0.5913354378499049,0.0
0.4373235460191982,0.6661661661661661,0.6849349349349348,0.8196190941277011,0.5053717494811378,0.5021050979297835
0.4432523997741389,0.5490490490490489,0.7557557557557557,0.1077855485986361,0.4387428710954532,0.4943544308212846
0.4342179559570864,0.5067567567567567,0.7537537537537538,0.5011912028881874,0.4960322304968868,0.5021661405375237
0.4988706945228685,0.5538038038038037,0.7675175175175175,0.560631006156583,0.5139473638313828,0.0099656417322148
0.4311123658949746,0.7232232232232231,0.6303803803803804,0.648593403910215,0.5474301062141375,0.4971466941067722
0.6756070016939582,0.5030030030030029,0.3633633633633634,0.4881577340984007,0.4015679229816697,0.5106057170762335
0.4206662902315076,0.4894894894894894,0.7627627627627627,0.5180232659539216,0.3729703332926383,0.5155205190365733
0.4528514963297572,0.5177677677677677,0.7690190190190189,0.4983518495910145,0.6236269773444721,0.4844498316968101
0.4088085827216262,0.6951951951951951,0.6283783783783783,0.234037358075937,0.4688682700524966,0.4814587439175402
0.435064935064935,0.5067567567567567,0.7537537537537538,0.5007168146223206,0.4960008371557633,0.5021818372080855
0.4031620553359684,0.6894394394394393,0.6669169169169169,0.2545162809355216,0.4663655231351483,0.4872577916528594
0.4237718802936194,0.538038038038038,0.7562562562562563,0.4850602577742121,0.5786385754399428,0.5853829115579817
0.4607566346696781,0.522022022022022,0.745995995995996,0.4328531314857771,0.4420705652545477,0.0
0.4618859401468097,0.2935435435435435,0.3493493493493493,0.6512932312468389,0.5230898023963584,0.4923993232990913
0.4768492377188029,0.2457457457457457,0.3963963963963964,0.5644766904442158,0.5102255088337374,0.4967647417897692
0.4217955957086391,0.5437937937937937,0.7622622622622621,0.4873798768683398,0.4392172593613199,0.179754783124335
0.5319028797289667,0.5503003003003002,0.7192192192192192,0.477414235136125,0.6613513089279174,0.000305213038701
0.2425183512140034,0.4977477477477476,0.3255755755755756,0.5162530303294557,0.5003662556464412,0.512787554284319
0.3627893845285149,0.4779779779779779,0.5785785785785785,0.3191307532657795,0.356215009505206,0.0
0.4370412196499153,0.6326326326326326,0.7124624624624624,0.7092087133962363,0.4870432704885152,0.482618553464604
0.4096555618294749,0.2575075075075074,0.4059059059059059,0.3518181976734046,0.4769869368819436,0.5070809424978635
0.4345002823263693,0.5060060060060059,0.7552552552552552,0.5011284162059403,0.495864799344228,0.5021050979297835
0.4503105590062112,0.2945445445445445,0.6453953953953954,0.3402671922144514,0.5202504490991855,0.5124073460418229
0.4345002823263693,0.5065065065065064,0.7545045045045045,0.5009313357866648,0.4959868845597084,0.5020911453337287
0.6499153020892151,0.5032532532532532,0.6634134134134133,0.5112161431536355,0.2248809669149066,0.5284301585363727
0.4342179559570864,0.5062562562562561,0.7547547547547546,0.5021364912709071,0.4952229799257024,0.5020754486631669
0.4229249011857707,0.5085085085085084,0.7827827827827827,0.5016934963461639,0.6954130840469505,0.4772311073129044
0.4345002823263693,0.5065065065065064,0.7545045045045045,0.5009470324572266,0.496016533826325,0.5020754486631669
0.4336533032185206,0.5805805805805805,0.7479979979979979,0.2468720023719413,0.4901721401538274,0.5101941154926138
0.7642574816487859,0.8503503503503502,0.5998498498498498,0.6317142508327955,0.6237333658893908,1.0
0.5223037831733484,0.4627127127127126,0.7207207207207207,0.5295603188168199,0.4266267854962764,0.7276732302003941
0.3879164313946923,0.4942442442442442,0.7622622622622621,0.5265378376964264,0.4775520170221672,0.3898791356366744
0.1764539808018069,0.5172672672672671,0.5665665665665666,0.5075692833597851,0.2225456511502171,0.5030364337164484
0.4155844155844156,0.7597597597597596,0.5067567567567567,0.1249245687775782,0.5188464691211608,0.4608263425013517
0.4370412196499153,1.0,0.7162162162162162,0.0554877304358442,0.4203847428362139,0.8264715628651655
0.580180688876341,0.3943943943943943,0.6566566566566566,0.4935748295167169,0.3090133770514676,0.8668503758480562
0.4409937888198758,0.3986486486486486,0.7627627627627627,0.3740691002319619,0.4948270750126445,0.5099342483910912
0.3814229249011858,0.577077077077077,0.597097097097097,0.5980954706385057,0.6142560650190976,0.0
0.401468097120271,0.4799799799799799,0.7432432432432432,0.5332682212184104,0.4523100266843399,0.2671381481416886
0.435064935064935,0.5067567567567567,0.755005005005005,0.5009766817238432,0.4959868845597084,0.5021661405375237
0.6852060982495765,0.4937437437437436,0.5540540540540541,0.5564033695519472,0.9231927027922632,0.4745748818389521
0.4138904573687182,0.6969469469469468,0.6721721721721721,0.8203062594834052,0.5255315067059665,0.5146798751242653
0.4412761151891586,0.4869869869869869,0.7472472472472472,0.4889966339362017,0.4914697315869334,0.5861014702548093
0.4356295878035008,0.5327827827827827,0.7717717717717717,0.6263738946927813,0.5652388510037148,0.1137066815494358
0.4339356295878035,0.5057557557557557,0.7545045045045045,0.4995430524792019,0.4968100877269477,0.5021521879414689
0.4500282326369283,0.4734734734734734,0.7409909909909909,0.5348396323490939,0.4170727453476812,0.6887280464621448
0.4364765669113495,0.5087587587587586,0.7712712712712713,0.5403945096534524,0.4505240943893123,0.3604862479725134
0.4508752117447769,0.6228728728728727,0.7107107107107107,0.9211939934073984,0.4721942201370842,0.4782391823778711
0.4246188594014681,0.518018018018018,0.7612612612612613,0.5043183284789926,0.4470307131520659,0.1142560650190976
0.2673630717108978,1.0,0.6358858858858858,0.2870066449238712,0.6413746795263093,0.0
0.4435347261434218,0.4797297297297296,0.7707707707707707,0.4523257233549017,0.4848457366098679,0.5201283638837051
0.4040090344438171,0.4554554554554554,0.6886886886886887,0.4215759457244014,0.4994959624675166,0.1293335891309276
0.4641445511010728,0.5037537537537536,0.7725225225225225,0.4787571725064095,0.2869002563789525,0.4593770165861485
0.3732354601919819,0.3976476476476476,0.4682182182182182,0.0,0.6149746237159252,0.1576730557929435
0.4342179559570864,0.5065065065065064,0.7537537537537538,0.5009766817238432,0.4959868845597084,0.5020457993965503
0.4892715979672501,0.5267767767767767,0.7510010010010009,0.4556377208434344,0.4785583480126271,0.3625006540279401
0.1671372106154715,0.5012512512512511,0.4396896896896897,0.5133072884873642,0.6958560789716937,0.5048677119486544
0.435064935064935,0.5067567567567567,0.7540040040040039,0.5010830702687619,0.496016533826325,0.5021364912709071
0.5073404856013551,0.4639639639639639,0.6954454454454454,0.4716151874008057,0.3313549714843818,0.9898215811779478
0.4345002823263693,0.5067567567567567,0.7545045045045045,0.5009766817238432,0.4959101452814064,0.5021661405375237
0.6027667984189723,0.973973973973974,0.4046546546546546,0.5780734952997192,0.8269442070565254,1.0
0.4556747600225861,0.3268268268268267,0.6531531531531531,0.8175889914017127,0.5039224235659348,0.4563545354657551
0.5731225296442688,0.4827327327327326,0.632132132132132,0.415243211189982,0.3445244780857038,0.8772276191638906
0.6993224167137211,0.4877377377377376,0.4997497497497497,0.5193348099830825,0.7743551284510874,0.5081954061077489
0.4333709768492377,0.5050050050050049,0.7545045045045045,0.5008842457749795,0.4959868845597084,0.5021050979297835
0.47656691134952,0.4927427427427426,0.7595095095095095,0.4981530250972321,0.7144130317247153,0.4791844707605909
0.2882552230378317,1.0,0.5780780780780781,0.6246943509426722,0.5212428274935905,0.9943544308212846
0.3142292490118577,1.0,0.5568068068068068,0.6579625721610827,0.6828069135113453,1.0
0.4630152456239412,0.4989989989989989,0.755005005005005,0.4993285313148577,0.5140241031096848,0.4124038578928092
0.4347826086956521,0.5062562562562561,0.7547547547547546,0.5008999424455413,0.4959711878891466,0.5020597519926051
0.4336533032185206,0.5055055055055054,0.7545045045045045,0.5005947294068402,0.4960775764340652,0.5020597519926051
0.5211744776962168,0.4844844844844844,0.6834334334334333,0.390977902575998,0.5678793798071053,0.1078465912063763
0.5508187464709203,0.3683683683683683,0.6624124124124124,0.5172593613199156,0.367858450913023,0.8910842911209167
0.4963297571993224,0.4972472472472471,0.7602602602602602,0.5485602664945847,0.4873031375900378,0.7322985157925946
0.466403162055336,0.2892892892892892,0.6413913913913913,0.7502589950642692,0.5010987669393236,0.5425310009243595
0.6411631846414455,0.4967467467467467,0.7585085085085085,0.1320194638714966,0.7664352861154229,1.0
0.4345002823263693,0.5062562562562561,0.7542542542542542,0.5011284162059403,0.4958177093325427,0.5021364912709071
0.4336533032185206,0.5057557557557557,0.7547547547547546,0.5013586340408462,0.4956816715210074,0.5020597519926051
0.4345002823263693,0.5065065065065064,0.7545045045045045,0.5008999424455413,0.4959711878891466,0.5020457993965503
0.4816487859966121,0.5600600600600599,1.0,0.3840033486230532,0.8589008842457749,1.0
0.4548277809147374,0.4987487487487486,0.7740240240240239,0.5407154193627152,0.4897744911662626,0.428489457069606
0.650197628458498,0.4254254254254253,0.826076076076076,0.6434815215305998,0.0,0.4787868217730261
0.6640316205533596,0.5052552552552552,0.3523523523523523,0.5099045991244746,0.4957427141287476,0.5016481504089855
0.4096555618294749,0.7109609609609608,0.6574074074074073,0.2002964926661666,0.4483579538517885,0.4807715785618361
0.4345002823263693,0.5065065065065064,0.7545045045045045,0.500915639116103,0.4959868845597084,0.5021818372080855
0.3531902879728967,0.7532532532532531,0.5975975975975976,0.5526640738092331,0.4660760067670091,0.0
0.4683794466403162,0.5160160160160159,0.6859359359359358,0.5074175488776881,0.381333170553046,0.510255158100354
0.4421230942970073,0.4924924924924924,0.7452452452452452,0.5142996668817692,0.48898093726564,0.4593909691822034
0.4345002823263693,0.5067567567567567,0.7545045045045045,0.5009313357866648,0.4959397945480231,0.5021207946003453
0.2995482778091474,0.0658158158158158,0.622122122122122,0.1056647539982908,0.6763224444948288,0.1339274813820046
0.3280632411067193,0.7159659659659658,0.3846346346346346,0.9835952351884472,1.0,0.2266215532727558
0.4573687182382834,0.5007507507507507,0.7464964964964964,0.5371139055060432,0.3883373737726076,0.2479864659818267
0.466403162055336,0.5277777777777777,0.7542542542542542,0.5065001656870781,0.4951165913807838,0.1372080855294138
0.4336533032185206,0.5055055055055054,0.7545045045045045,0.5001831278232206,0.4964298794844515,0.5020457993965503
0.4277244494635799,0.4992492492492492,0.7630130130130129,0.5043950677572946,0.465160367650906,0.832727558121283
0.4288537549407115,0.6834334334334333,0.6709209209209209,0.7057292847550447,0.4972373859811291,0.5002738196975774
0.4505928853754941,0.4562062062062061,0.7327327327327327,0.4517466906186232,0.3620123131660184,0.2460174058635785
0.3613777526821005,0.6629129129129128,0.6401401401401401,0.5374958578230462,0.6344611681811048,0.563927306974554
0.3591191417278374,0.533033033033033,0.7795295295295295,0.3640424158920069,0.4450913023004342,0.2477422955508659
0.4345002823263693,0.5065065065065064,0.7545045045045045,0.5008999424455413,0.4960008371557633,0.50198475678881
0.4412761151891586,0.5775775775775774,0.6959459459459459,0.5678950764776671,0.4705321171320439,1.0
0.7083568605307735,0.5007507507507507,0.5005005005005004,0.4885850323525821,0.2440779950119469,0.5271186145072118
0.4099378881987577,0.5115115115115114,0.7635135135135135,0.522585764863875,0.4606118213370075,0.3124928056926592
0.4601919819311124,0.2712712712712712,0.866116116116116,0.3349564853410537,0.1767636953450651,1.0
0.4037267080745341,0.7407407407407406,0.6176176176176176,0.8897727470917558,0.5177790955229608,0.4680590194813122
0.1637492941840768,0.2467467467467467,0.9049049049049048,0.6704309608106458,0.0,0.3453947712646284
0.1648785996612083,0.4977477477477476,0.501001001001001,0.5066693409142439,0.2640249751469383,0.5037079024015906
0.4347826086956521,0.5065065065065064,0.7545045045045045,0.500992378394405,0.4960008371557633,0.5020597519926051
0.4359119141727837,0.4922422422422421,0.766016016016016,0.5333135671555889,0.4569492648725953,0.3795472382580184
0.2622811970638058,0.5015015015015014,0.7037037037037036,0.4673265081884298,0.111540541011912,0.5396619983605699
0.4282891022021456,0.6251251251251251,0.7212212212212212,0.4994959624675166,0.504365418490678,0.5054484887594398
0.4220779220779221,0.4992492492492492,0.7625125125125125,0.5181139578282784,0.2989413467743342,0.5217608176221288
0.2636928289102202,0.093093093093093,0.5117617617617617,0.1755131939236444,0.5021050979297835,0.2581177947921935
0.5392433653303219,0.7314814814814814,0.725975975975976,0.6453581456999843,0.3831034061775119,1.0
0.4206662902315076,0.7489989989989989,0.5335335335335335,0.5200987146170885,0.5125904738650435,0.5114917069257199
0.4370412196499153,0.5022522522522521,0.7522522522522521,0.4938189999476777,0.652882083122591,0.4990843608838969
0.4573687182382834,0.5257757757757757,0.7414914914914914,0.4573155205190365,0.347728342954811,0.2875874217346565
0.5615471485036703,0.6951951951951951,0.6331331331331331,0.4305178157210876,0.4023004342745522,0.7951863543610582
0.442970073404856,0.6539039039039038,0.6971971971971972,0.2751643790222718,0.417470394335246,0.4896994959624675
0.7371541501976284,0.5005005005005004,0.4839839839839839,0.4811535308788391,0.7976141060746115,0.5190766869560668
0.4418407679277245,0.5723223223223222,0.7732732732732732,0.5441495020667283,0.4457784676561382,0.0
0.52343308865048,0.4797297297297296,0.7510010010010009,0.5595775851544378,0.2148246333083349,0.5197167623000855
0.2326369282891022,0.4952452452452451,0.3205705705705706,0.5050054938346966,0.407520449273593,0.5087744388440274
0.660643704121965,0.5002502502502502,0.3458458458458459,0.508957566667248,0.5774630692223172,0.5044857596316514
0.4342179559570864,0.5067567567567567,0.755005005005005,0.5008232031672393,0.4959554912185848,0.5021818372080855
0.4172783738001129,0.7595095095095095,0.4834834834834834,0.1760922266599229,0.4893018469749027,0.5011284162059403
0.4861660079051383,0.4964964964964964,0.7607607607607607,0.5073565062699479,0.2443849521251547,0.5170151908889548
0.7840203274985884,0.4409409409409409,0.5743243243243243,0.8091651115335647,0.0,0.4576521268988611
0.4412761151891586,0.5142642642642642,0.7489989989989989,0.5993773654010499,0.4185534646040079,0.1508519803966025
0.3831168831168831,0.8338338338338337,0.6939439439439439,0.0,0.4043165844044857,0.0364267401503392
0.4345002823263693,0.5065065065065064,0.7545045045045045,0.500915639116103,0.4959554912185848,0.5022289272197709
0.4347826086956521,0.5067567567567567,0.7542542542542542,0.5009766817238432,0.4960008371557633,0.5021975338786473
0.5717108977978543,0.4927427427427426,0.7354854854854854,0.5208469225805327,0.872070390847097,0.4857474231299161
0.4186900056465273,0.5618118118118117,0.7242242242242242,0.5299405270593159,0.5201597572248287,0.3315991419153427
0.4757199322416713,0.259009009009009,0.5653153153153153,0.6995482847027226,0.4991454034916371,0.4708216335001831
0.4347826086956521,0.5065065065065064,0.7547547547547546,0.5009470324572266,0.4959711878891466,0.5020301027259885
0.4282891022021456,0.384134134134134,0.7505005005005004,0.2747231281720355,0.4995883984163803,0.4928266215532728
0.4347826086956521,0.5067567567567567,0.7540040040040039,0.5008702931789246,0.4959101452814064,0.5021521879414689
0.4347826086956521,0.5067567567567567,0.7545045045045045,0.5008842457749795,0.4959258419519682,0.5022132305492091
0.4994353472614342,0.4542042042042041,0.7897897897897898,0.4632070042032196,0.4947206864677259,0.136658702059752
0.4395821569734613,0.3936436436436435,0.7292292292292292,0.6794042241484556,0.4976960775764341,0.4775206236810436
0.2024280067758329,0.507007007007007,0.3268268268268268,0.4641976385231177,0.3802954462214626,0.4758881699426199
0.4345002823263693,0.5067567567567567,0.7545045045045045,0.500838899837801,0.496016533826325,0.5022428798158257
0.5087521174477696,0.5543043043043042,0.7535035035035034,0.560631006156583,0.5768072972077367,0.8490119817918622
0.5276679841897234,0.5030030030030029,0.7687687687687688,0.49647522542163,0.8975408549453232,0.4699216910546419
0.1931112365894974,0.5227727727727727,0.4014014014014014,0.4342571114638017,0.7841690357012052,0.4823743830336432
0.458498023715415,0.2912912912912913,0.3538538538538539,0.2904407276278843,0.4969478696129898,0.4962310549906692
0.4875776397515527,0.2675175175175174,0.4554554554554554,0.1549418351151961,0.5067600327886007,0.4779182726686084
0.4342179559570864,0.507007007007007,0.7547547547547546,0.5008702931789246,0.4959554912185848,0.5022428798158257
0.388481084133258,0.4932432432432431,0.7342342342342342,0.5020754486631669,0.5144060554266878,0.6095714808936638
0.6900056465273856,0.4962462462462461,0.4056556556556556,0.470669899018086,0.2541046793519019,0.5055705739749202
0.4776962168266516,0.8155655655655654,0.5953453453453453,0.5501613268918848,0.21987547308021,0.0
0.2154150197628458,0.5007507507507507,0.3455955955955956,0.5105917644801786,0.5464080785531158,0.5096604286935138
0.4359119141727837,0.3568568568568568,0.7279779779779779,0.4220485899157612,0.4813663079686764,0.489591363343042
0.4813664596273292,0.2605105105105104,0.537037037037037,0.331797966409125,0.4576817761654778,0.4856706838516141
0.1188594014680971,0.7367367367367366,0.541041041041041,0.6962066379475731,0.2154647086523536,0.0
0.4697910784867307,0.4494494494494493,0.7585085085085085,0.2098644854108167,0.4762090796518827,0.5308875595165425
0.2080745341614907,0.4979979979979979,0.3591091091091091,0.4949038142909465,0.7555697019376668,0.4991611001621989
0.4937888198757764,0.4842342342342342,0.6846846846846846,0.4807262326246577,0.1928946404590404,0.4989622756684165
0.5177865612648221,0.4664664664664664,0.7344844844844844,0.5127282557510857,0.4583689415211818,0.7443082128468528
0.466120835686053,0.3495995995995995,0.3363363363363363,0.8928091808082042,0.5641400840643912,0.5132619425501858
0.3896103896103896,0.4251751751751751,0.8015515515515514,0.4097179831522403,0.5457366098679736,0.120116155362157
0.461038961038961,0.2254754754754754,0.5402902902902903,0.2202103353855277,0.4376458482306364,0.4517763398852399
0.4345002823263693,0.5067567567567567,0.7540040040040039,0.5008999424455413,0.4959258419519682,0.5020754486631669
0.6829474872953134,0.4889889889889889,0.617117117117117,0.5164361581526763,0.2297347262675061,0.5212271308230287
0.3170525127046866,0.2307307307307307,0.4969969969969969,0.5967978792053996,0.675542843190261,0.860135688996634
0.4466403162055336,0.5660660660660659,0.7532532532532532,0.761597223433385,0.5075535866892233,0.4919127265116765
0.3582721626199887,0.4984984984984984,0.7577577577577577,0.515231002668434,0.4024382161605944,0.4261837905715332
0.4345002823263693,0.5065065065065064,0.7547547547547546,0.5008999424455413,0.4959258419519682,0.5019690601182483
0.4090909090909091,0.5015015015015014,0.7772772772772771,0.4675549819488288,0.4010499328531315,0.0434780333815861
0.4432523997741389,0.2892892892892892,0.6183683683683683,0.3441425257687008,0.5010987669393236,0.5071576817761655
0.1363636363636364,0.4879879879879879,0.5017517517517517,0.4740272424437972,0.2963322113120672,0.5037392957427141
0.7380011293054771,0.7412412412412411,0.6639139139139139,0.9091685996825783,0.3974484189964595,0.0
0.3814229249011858,0.7414914914914914,0.5437937937937938,0.5115370528628983,0.2329385911366133,0.0023353157646894
0.4059853190287973,0.7885385385385384,0.7337337337337337,0.0,0.4750335734342571,0.3344210544674468
0.5239977413890458,0.4436936936936936,0.7409909909909909,0.5415386225299544,0.477796187453128,0.0967525332682212
0.6883116883116883,0.4762262262262261,0.549049049049049,0.5039224235659348,0.8674921952665817,0.4799623279906517
0.2670807453416149,0.091091091091091,0.5975975975975976,0.3883373737726076,0.4765910319688857,0.5695728761532692
0.4553924336533032,0.5625625625625624,0.7229729729729729,0.4560650190976159,0.3159565376632889,0.253937248199243
0.4311123658949746,0.7437437437437436,0.4061561561561561,0.4649161972199452,0.4909343007133265,0.4990233182761567
0.4184076792772445,0.5432932932932932,0.7427427427427427,0.493866089959363,0.4753544831435199,0.9713867136404066
0.4121964991530209,0.7459959959959959,0.6501501501501501,0.1445942410659783,0.4823900797042049,0.4946125538483004
0.4522868435911914,0.5545545545545545,0.72997997997998,0.4986413659591537,0.4778118841236897,0.0002284737603991
0.4345002823263693,0.5067567567567567,0.7547547547547546,0.5008999424455413,0.4959711878891466,0.5022585764863875
0.2735742518351214,0.9699699699699698,0.6539039039039038,0.3935416921010866,0.542562394265483,0.2268029370214695
0.4345002823263693,0.5067567567567567,0.7547547547547546,0.5009470324572266,0.4959554912185848,0.5021521879414689
0.3802936194240542,0.4967467467467467,0.72997997997998,0.4641976385231177,0.5700769136857526,0.6761393166716082
0.5163749294184077,0.7357357357357356,0.6441441441441441,0.7025393724819924,0.5058443936724977,1.0
0.4347826086956521,0.5065065065065064,0.7542542542542542,0.5008842457749795,0.4959711878891466,0.5022585764863875
0.4347826086956521,0.5065065065065064,0.7545045045045045,0.5009313357866648,0.4959711878891466,0.5022289272197709
0.4624505928853755,0.2625125125125125,0.5565565565565566,0.6828836527896471,0.4967647417897692,0.5026701780700071
0.4328063241106719,0.5065065065065064,0.757007007007007,0.500076739278302,0.4957584107993093,0.5024730976507317
0.4347826086956521,0.5067567567567567,0.7542542542542542,0.5008702931789246,0.4959397945480231,0.5021975338786473
0.3901750423489554,0.5140140140140139,0.7680180180180181,0.5007482079634442,0.6272284912011441,0.4933010098191395
0.4446640316205533,0.4436936936936936,0.7417417417417417,0.5128189476254426,0.4385143973350541,0.6968013673544133
0.4322416713721062,0.4309309309309308,0.7019519519519519,0.4369726354709873,0.4136857526553534,0.7303904982820866
0.4652738565782044,0.7540040040040039,0.6956956956956957,0.4723930446308666,0.3989901808605264,0.0
0.2428006775832862,0.5082582582582582,0.6681681681681682,0.4990843608838969,0.0019987093848649,0.5060118248251565
0.4311123658949746,0.5718218218218217,0.7194694694694694,0.4598636133735633,0.5547395224724,0.1257634686153793
0.5056465273856579,0.4376876876876876,0.7267267267267267,0.4533337984198685,0.5329473115091476,0.1536145944154734
0.4316770186335403,0.3966466466466465,0.6539039039039038,0.4445576155013342,0.59286150304341,1.0
0.4339356295878035,0.5057557557557557,0.7547547547547546,0.5009470324572266,0.4959868845597084,0.5020301027259885
0.435064935064935,0.507007007007007,0.7540040040040039,0.5009766817238432,0.4959868845597084,0.5020911453337287
0.4240542066629023,0.4336836836836836,0.7782782782782782,0.7458028846992344,0.482159861869299,0.5045485463138986
0.4573687182382834,0.5400400400400399,0.777027027027027,0.5126515164727837,0.5569527530216091,0.2536320351605421
0.4731789949181254,1.0,0.3848848848848848,0.5980047787641488,0.5742121143415246,0.8183668486317736
0.3506493506493506,0.5067567567567567,0.772022022022022,0.5009609850532815,0.5273784816087344,0.2852817552365837
0.6507622811970638,0.4817317317317316,0.3255755755755756,0.527790083192354,0.6017737237734796,0.5057676543941957
0.4302653867871259,0.5165165165165164,0.7745245245245245,0.4984896314770567,0.4889355913284615,0.1795420060344977
0.1648785996612083,0.5060060060060059,0.4722222222222222,0.4978024661213527,0.3218166280063484,0.5029753911087081
0.4669678147939017,0.4907407407407406,0.7787787787787788,0.4712035858171861,0.4697682124980379,0.3145211643441408
0.3407679277244494,0.0,0.3856356356356356,0.0,0.251647278371732,0.2966984669585085
0.4336533032185206,0.5052552552552552,0.7542542542542542,0.5007168146223206,0.4960775764340652,0.5021050979297835
0.1936758893280632,0.5122622622622621,0.5950950950950951,0.5155972583148752,0.8293702146955717,0.4931021853253571
0.4347826086956521,0.5062562562562561,0.7547547547547546,0.5008702931789246,0.4959554912185848,0.5020457993965503
0.4345002823263693,0.507007007007007,0.7552552552552552,0.5009609850532815,0.4959397945480231,0.5021818372080855
0.4407114624505929,0.4889889889889889,0.7379879879879879,0.4949177668870014,0.4614821145159321,0.8145368610147026
0.7108977978543196,0.4934934934934934,0.4944944944944944,0.4613757259710135,0.2888693164972007,0.5404102063240142
0.4155844155844156,0.7022022022022021,0.6534034034034033,0.200127317439001,0.4204161361773375,0.4604740394509653
0.448051948051948,0.7154654654654653,0.617117117117117,0.7335036712768369,0.4905070024591451,0.4997401328984774
0.4280067758328628,0.4922422422422421,0.7412412412412412,0.1008877339239932,0.4598793100441251,0.5109876693932365
0.4347826086956521,0.5065065065065064,0.7547547547547546,0.5010534210021452,0.496016533826325,0.5020301027259885
0.4339356295878035,0.5055055055055054,0.755005005005005,0.501602804471807,0.4954985436977868,0.5020754486631669
0.4345002823263693,0.5065065065065064,0.7545045045045045,0.5009470324572266,0.4959554912185848,0.5021364912709071
0.4251835121400338,0.7467467467467466,0.5618118118118118,0.328119713274151,0.4700280795995605,0.5203271883774875
0.5273856578204404,0.4852352352352351,0.75,0.5012365488253658,0.2597816418717407,0.4940788670492003
0.398927159796725,0.5080080080080079,0.7612612612612613,0.5004272982541814,0.6837992919057502,0.4953450651411828
0.3698475437605872,0.4469469469469468,0.7307307307307307,0.3233583898704152,0.4231316601845231,0.0
0.4887069452286843,0.4559559559559559,0.7372372372372371,0.5707326857003331,0.4631913075326578,0.6115248443413502
0.4347826086956521,0.5025025025025024,0.7632632632632632,0.4998622181139578,0.4967647417897692,0.5019690601182483
0.424901185770751,0.5573073073073073,0.7505005005005004,0.5253623314788007,0.5157175994558487,1.0
0.4494635798983625,0.3268268268268267,0.6656656656656657,0.4856392905104906,0.504211939934074,0.5046235415176936
0.1773009599096555,0.5047547547547546,0.4274274274274274,0.5200673212759649,0.7474824284493433,0.5117044840155571
0.4297007340485601,0.6859359359359358,0.6824324324324323,0.1311805640336955,0.4617262849468929,0.5270122259622931
0.4316770186335403,0.4389389389389388,0.7432432432432432,0.5213945619756876,0.4147845195946771,0.1156303957305056
0.4342179559570864,0.4169169169169168,0.7277277277277276,0.7314578718802868,0.5252402462633203,0.5006418194185256
0.6665725578769057,0.4977477477477476,0.3445945945945946,0.5225543715227514,0.6004307864031951,0.489043723947887
0.461038961038961,0.3455955955955955,0.6834334334334333,0.8390916859968258,0.5715576329420793,0.5228613286359594
0.4347826086956521,0.4309309309309308,0.7439939939939939,1.0,0.2092383626628529,0.2788426321572457
0.704686617730096,0.7414914914914914,0.6216216216216216,0.9249629384167292,0.5106214137467953,0.0
0.4339356295878035,0.5055055055055054,0.7547547547547546,0.5008702931789246,0.4960008371557633,0.5021050979297835
0.4599096555618295,0.4076576576576576,0.7344844844844844,0.17523763015156,0.4396602542860631,0.5053874461516996
0.510446075663467,0.5025025025025024,0.7605105105105104,0.5035858171861102,0.2004028812110853,0.5087744388440274
0.5756634669678148,0.3683683683683683,0.7189689689689689,1.0,0.279514100842388,0.5762875630046915
0.4243365330321852,0.5087587587587586,0.7247247247247247,0.4968711303346879,0.4690357012051555,0.6964961543157124
0.7066629023150762,0.4762262262262261,0.4594594594594594,0.4994802657969548,0.8055792943474545,0.5262326246577254
0.4520045172219085,0.3788788788788788,0.744994994994995,0.1392085389887856,0.4010952787903099,0.5021975338786473
0.7018633540372671,0.4847347347347346,0.5422922922922923,0.4855782479027504,0.2216160594380592,0.5527565097580969
0.4345002823263693,0.5062562562562561,0.7547547547547546,0.5015871078012453,0.4955142403683485,0.5020911453337287
0.5443252399774139,0.5112612612612611,0.7277277277277276,0.491881333170553,0.179144357046933,0.4487556028393533
0.4345002823263693,0.5062562562562561,0.7545045045045045,0.5009609850532815,0.4959868845597084,0.5019987093848649
0.466120835686053,0.5002502502502502,0.7642642642642642,0.5208312259099709,0.5345658126515165,0.2771944817482603
0.5101637492941841,0.5217717717717717,0.7029529529529529,0.309517414583951,0.134965205713588,0.1372394788705373
0.7066629023150762,0.5005005005005004,0.5755755755755756,0.4575300416833807,0.645998221044003,0.4871810523745574
0.4796725014116318,0.6789289289289289,0.6799299299299298,0.5060746115074036,0.4836405811256257,0.5023039224235659
0.4409937888198758,0.2655155155155154,0.5733233233233233,0.4680293702146956,0.5267366621902088,0.5259431082895861
0.5053642010163749,0.5387887887887887,0.7409909909909909,0.4688072274447564,0.4855939445733122,0.4495334600694142
0.686617730095991,0.4989989989989989,0.4126626626626626,0.4577131695066013,0.2963775572492457,0.5202957950363639
0.3797289666854884,0.8385885885885884,0.5865865865865866,0.4920034183860334,0.7509461604199732,0.1922999110522001
0.4347826086956521,0.5067567567567567,0.7545045045045045,0.5009609850532815,0.4958804960147897,0.5022428798158257
0.4700734048560135,0.2617617617617617,0.3856356356356356,0.5727017458185814,0.5089889600083716,0.5056455691787153
0.4384528514963298,0.2572572572572572,0.5778278278278278,0.3454104679351902,0.4751260093831208,0.4841585712541639
0.4432523997741389,0.5047547547547546,0.755005005005005,0.2300381952317002,0.5069745539529449,0.4942462982018591
0.4133258046301524,0.7737737737737737,0.5728228228228228,0.0,0.4722256134782078,0.468226450633971
0.4440993788819876,0.5850850850850849,0.7359859859859859,0.2689694263738946,0.5075396340931685,0.4923243280952962
0.4345002823263693,0.5067567567567567,0.7542542542542542,0.5008842457749795,0.4959258419519682,0.5021521879414689
0.2049689440993789,0.8310810810810809,0.6133633633633633,0.0008545965083628,0.4775520170221672,0.032458970647226
0.4463579898362507,0.4672172172172171,0.73998998998999,0.5621256780089645,0.4856096412438739,0.2567609048258541
0.4345002823263693,0.5067567567567567,0.7545045045045045,0.5009766817238432,0.4959554912185848,0.5022428798158257
0.7295313382269903,0.4519519519519518,0.8493493493493494,0.6960688560615309,0.0,0.5099795943282697
0.4333709768492377,0.5052552552552552,0.7545045045045045,0.5005040375324834,0.4961543157123672,0.5020301027259885
0.4347826086956521,0.5067567567567567,0.7545045045045045,0.5008999424455413,0.4959868845597084,0.5021975338786473
0.3800112930547713,0.6423923923923922,0.7139639639639639,0.4792908593055095,0.3339344576800321,0.0
0.4345002823263693,0.5065065065065064,0.7542542542542542,0.500915639116103,0.4959258419519682,0.5021661405375237
0.5254093732354602,0.7422422422422421,0.6511511511511511,0.5582189511135915,0.5030521303870101,0.3514379894309085
0.1679841897233202,0.2424924924924924,0.5533033033033032,0.5611350436890664,0.6320351605420583,0.388764672026789
0.3814229249011858,0.5247747747747746,0.7154654654654654,0.4612065507438477,0.4759038666131817,0.6299754085494532
0.4443817052512704,0.4817317317317316,0.7895395395395395,0.5130474213858416,0.2003714878699618,0.5052793135322741
0.44042913608131,0.5277777777777777,0.7662662662662663,0.4315415874566161,0.4949491602281249,0.4840975286464237
0.4618859401468097,0.558058058058058,0.7522522522522521,0.4678915883286534,0.4857317264593543,0.0143136194778241
0.305477131564088,0.7555055055055053,0.7652652652652652,0.3796850201440606,0.390290737220294,0.1290597694333501
0.4130434782608695,0.5032532532532532,0.7472472472472472,0.5343966374243507,0.5429896925196644,0.3331705530460261
0.4940711462450592,0.8360860860860859,0.6574074074074073,0.2651376946823168,0.6386591555191238,0.0037846416798926
0.4268774703557312,0.5205205205205204,0.7857857857857857,0.4940492177825836,0.4973298219299928,0.5320177197969898
0.696781479390175,0.4932432432432431,0.5122622622622622,0.4966130073076721,0.2542878071751225,0.5223258977623524
0.4003387916431394,0.7464964964964964,0.5658158158158157,0.8395503775921307,0.4705774630692223,0.4952229799257024
0.4345002823263693,0.5067567567567567,0.7542542542542542,0.5009313357866648,0.4959868845597084,0.5021975338786473
0.2001693958215697,0.5042542542542542,0.6076076076076076,0.4975269023492684,0.2084448087622303,0.5070198998901233
0.2199322416713721,0.5127627627627627,0.6283783783783783,0.5147269651359506,0.1404433437396445,0.4972984285888693
0.4347826086956521,0.5067567567567567,0.7542542542542542,0.5008842457749795,0.4959868845597084,0.5022289272197709
0.4822134387351778,0.5165165165165164,0.7605105105105104,0.4956973681915691,0.6414514188046113,0.4844951776339885
0.5496894409937888,0.4897397397397396,0.6408908908908908,0.0899611071384969,0.4966723058409055,0.850018312782322
0.4347826086956521,0.5067567567567567,0.7545045045045045,0.5010377243315834,0.4960479271674486,0.5022132305492091
0.4345002823263693,0.5062562562562561,0.7540040040040039,0.4995430524792019,0.4967350925231525,0.5020597519926051
0.1905702992659514,0.4954954954954954,0.4246746746746747,0.5272250030521304,0.1499206446099377,0.475492265029562
0.2066629023150762,0.9589589589589588,0.6323823823823823,0.3525053630291086,0.4110609205225247,0.5191673788304236
0.4539808018068887,0.2537537537537537,0.5155155155155154,0.3014737429582992,0.4528594101540018,0.5271482637738284
0.4361942405420666,0.3706206206206205,0.694944944944945,0.689171041386888,0.4584753300661004,0.5164361581526763
0.4347826086956521,0.5065065065065064,0.7542542542542542,0.5008842457749795,0.4959711878891466,0.5020754486631669
0.4345002823263693,0.5062562562562561,0.7547547547547546,0.5010063309904599,0.4958804960147897,0.5020597519926051
0.362507058159232,0.4754754754754754,0.7092092092092092,0.4877757817813977,0.5338472539546889,0.6705216526850027
0.4336533032185206,0.601101101101101,0.77002002002002,0.3214957182970857,0.4807872752323979,0.521898599508171
0.4675324675324675,0.834084084084084,0.5995995995995995,0.5212131782269739,0.4604897361215271,0.5408688979193191
0.3610954263128176,0.6308808808808808,0.6966966966966966,0.5059821755585399,0.1788705373493556,0.0
0.577922077922078,0.8393393393393391,0.5465465465465466,0.6246036590683154,0.6288312956729512,1.0
0.4373235460191982,0.584084084084084,0.7439939939939939,0.4803756736487782,0.4565376632889757,1.0
0.735460191981931,0.5010010010010009,0.512012012012012,0.4798716361162949,0.8479585607897169,0.4688525733819348
0.4347826086956521,0.5067567567567567,0.755005005005005,0.5009609850532815,0.4959711878891466,0.5022289272197709
0.4333709768492377,0.5052552552552552,0.7545045045045045,0.5008702931789246,0.4960322304968868,0.5020457993965503
0.4345002823263693,0.507007007007007,0.7542542542542542,0.5008999424455413,0.4959711878891466,0.5022585764863875
0.3345567476002258,0.1611611611611611,0.6546546546546546,0.4483876031184052,0.4811831801454558,0.9215149031166612
0.429983060417843,0.5067567567567567,0.746996996996997,0.2875106824563546,0.4554842422868305,0.5095522960740883
0.3794466403162055,0.599099099099099,0.7960460460460459,0.2958735197167623,0.1652580358232903,1.0
0.4330886504799548,0.5705705705705705,0.7607607607607607,0.4264890036102342,0.5090500026161118,1.0
0.3997741389045737,0.7217217217217216,0.6488988988988988,0.8717041352006558,0.5207544866316689,0.4664108690723267
0.435064935064935,0.5067567567567567,0.7545045045045045,0.5009609850532815,0.4959711878891466,0.5022428798158257
0.4121964991530209,0.6889389389389389,0.6534034034034033,0.3270819889425676,0.2052409438931231,0.8896663585468372
0.663184641445511,0.3918918918918918,0.5993493493493494,0.6263738946927813,0.4973298219299928,0.3727418595322392
0.4271597967250141,0.5060060060060059,0.7767767767767767,0.5009470324572266,0.6064269145577899,0.4807105359540959
0.4209486166007905,0.4764764764764764,0.7572572572572571,0.4196522315433315,0.3853776793344611,0.7114812424786787
0.435064935064935,0.5072572572572571,0.7545045045045045,0.5008702931789246,0.4959711878891466,0.5020754486631669
0.663466967814794,0.5055055055055054,0.3475975975975975,0.5090656992866736,0.4716151874008057,0.4991297068210754
0.406549971767363,0.559059059059059,0.7474974974974975,0.5426234368732232,0.514849050351431,0.1275476568359
0.3359683794466403,0.5102602602602602,0.7562562562562563,0.4620314979855939,0.1435879100755184,0.5345797652475713
0.5926030491247882,0.6293793793793793,0.0087587587587588,0.3600746463888937,0.7464290074471981,0.503601513856672
0.4666854884246189,0.5365365365365364,0.7540040040040039,0.4561417583759178,0.3789978547883565,0.9999843033294382
0.4232072275550536,0.7322322322322321,0.6118618618618619,0.7302684130666062,0.5336798228020301,0.4945218619739435
0.4703557312252964,0.5097597597597596,0.7432432432432432,0.5309189528576661,0.4800844132061321,0.5472469783909168
0.6998870694522868,0.4887387387387386,0.4479479479479479,0.5111254512792787,0.6881036677886879,0.5060589148368418
0.7029926595143986,0.5292792792792792,0.6846846846846846,0.4983518495910145,0.4178680433228107,1.0
0.4669678147939017,0.7727727727727727,0.8003003003003002,0.50956799274465,0.4099011109754609,0.9739958491026736
0.4536984754376059,0.3063063063063062,0.616116116116116,0.3460662399497707,0.5171529727749969,0.5244170430960811
0.670807453416149,0.4842342342342342,0.3676176176176176,0.5034340827040131,0.4999843033294382,0.5053717494811378
0.7221908526256352,0.4722222222222221,0.4992492492492492,0.5358616600101156,0.8117742469958317,0.4873798768683398
0.4000564652738566,0.5290290290290289,0.746996996996997,0.5071576817761655,0.4751260093831208,0.1217346565045259
0.3475437605872388,0.956206206206206,0.6626626626626626,0.3418682526117516,0.624786786891536,0.1273348797460627
0.4579333709768492,0.4899899899899899,0.7515015015015014,0.4697996058391614,0.4574689990756405,0.2909744144269843
0.4260304912478825,0.7535035035035034,0.5553053053053053,0.6022917139020179,0.4913005563597677,0.491194167814849
0.4460756634669678,0.5017517517517517,0.7827827827827827,0.5096900779601304,0.2971554144793065,0.518830772450599
0.435347261434218,0.5052552552552552,0.7585085085085085,0.5011912028881874,0.4959397945480231,0.505891483684183
0.3102766798418972,0.502002002002002,0.7232232232232232,0.5159024713535763,0.7618117445977293,0.4628407485567783
0.4565217391304348,0.5440440440440439,0.7477477477477477,0.49899366900954,0.4289464045904041,0.9877147391736576
0.4511575381140598,0.4847347347347346,0.765015015015015,0.5006557720145804,0.4987181052374557,0.5439820709140695
0.5299265951439864,0.5477977977977977,0.7244744744744744,0.4515007761131555,0.5068367720669027,0.10595427036643
0.67871259175607,0.5080080080080079,0.3696196196196196,0.5293004517152973,0.5504054973228456,0.5128485968920592
0.2893845285149633,0.4877377377377376,0.7304804804804804,0.4164937126114028,0.0634843120498108,0.4936358721244571
0.4328063241106719,0.5357857857857857,0.7532532532532532,0.3500183127823221,0.4077803163751156,0.9567818337199364
0.3667419536984754,0.4924924924924924,0.7577577577577577,0.4597886181697682,0.6048258541604897,0.748427716832063
0.4347826086956521,0.5067567567567567,0.7545045045045045,0.5008842457749795,0.4959397945480231,0.5021661405375237
0.4680971202710333,0.2885385385385385,0.6433933933933933,0.7216614053752376,0.5061810000523222,0.5396776950311317
0.4336533032185206,0.5050050050050049,0.7547547547547546,0.5010377243315834,0.4959554912185848,0.5020457993965503
0.1679841897233202,0.5122622622622621,0.5425425425425425,0.5251495543889635,0.1806093796326979,0.5010220276610217
0.448051948051948,0.2487487487487487,0.4502002002002002,0.3841097371679718,0.4860055461569318,0.5216701257477719
0.3642010163749294,0.507007007007007,0.752002002002002,0.4709140694490468,0.261140275912587,0.4936201754538954
0.585544889892716,0.4852352352352351,0.6198698698698698,0.4804367162565184,0.5027765666149258,0.1106859445035491
0.4486166007905138,0.3973973973973973,0.7437437437437437,0.7532814761846626,0.5495212515478661,0.5072640703210841
0.4028797289666855,0.7452452452452452,0.5130130130130129,0.4568882222648551,0.4809093604478783,0.5033416467551494
0.378317334839074,0.8576076076076075,0.6263763763763763,0.4768945009330798,0.4286725848928266,0.7698083262116957
0.4345002823263693,0.5067567567567567,0.7540040040040039,0.500915639116103,0.4959554912185848,0.5021521879414689
0.1705251270468662,0.5037537537537536,0.4309309309309309,0.4758428240054415,0.6427490102377174,0.4961543157123672
0.4127611518915867,0.5482982982982982,0.7457457457457457,0.4140363116312329,0.4551633325775677,0.9596351396131644
0.4345002823263693,0.507007007007007,0.7547547547547546,0.5010220276610217,0.4959397945480231,0.5021975338786473
0.7063805759457933,0.7449949949949949,1.0,0.376892756858573,0.1041386888047857,0.8591450546767359
0.3424618859401468,0.4867367367367367,0.7484984984984985,0.4354326176814274,0.407215236234892,0.0920522524722256
0.4754376058723885,0.4892392392392392,0.7712712712712713,0.5077977571201842,0.5627361040863665,0.7944852364092994
0.4472049689440994,0.552052052052052,0.7357357357357357,0.395571794827075,0.3848125991942376,0.0582189511135916
0.538678712591756,0.5335335335335334,0.7902902902902902,0.4711878891466243,0.4589340216614054,0.0535029736470342
0.4415584415584415,0.7505005005005003,0.5733233233233233,0.3017789559970002,0.4608873851090919,0.5073565062699479
0.3938452851496329,0.6576576576576576,0.6951951951951951,0.230207370458866,0.4584613774700455,0.4673422048589916
0.3537549407114624,0.5460460460460459,0.7192192192192192,0.3856514990320386,0.4229642290318642,1.0
0.3416149068322981,0.6103603603603602,0.767017017017017,0.5354343617559342,0.4865095836894152,0.0
0.2735742518351214,0.8488488488488487,0.6351351351351351,0.5013429373702845,0.3849032910685944,0.8518809843556516
0.1905702992659514,0.5025025025025024,0.6008508508508508,0.5246001709193017,0.8241972897082164,0.4891187191516821
0.4754376058723885,0.4747247247247246,0.7592592592592592,0.4490451192074925,0.4212253867485219,0.8075169611245792
0.189158667419537,0.2775275275275274,0.5895895895895895,0.5214713012539895,0.3566719570260042,0.7831923539773619
0.4347826086956521,0.5065065065065064,0.7542542542542542,0.5009609850532815,0.496016533826325,0.5022428798158257
0.453416149068323,0.2424924924924924,0.527027027027027,0.3987460104295656,0.4567975303904983,0.5195789804140433
0.5031055900621118,1.0,0.730980980980981,0.6605874042939114,0.5454610460958892,0.0
0.4342179559570864,0.5067567567567567,0.7545045045045045,0.500763904634006,0.4959397945480231,0.5022132305492091
0.3876341050254094,0.4959959959959959,0.7354854854854854,0.5043793710867328,0.4277552017022167,0.7021277708983727
0.1883116883116883,0.4964964964964964,0.5765765765765766,0.486677014842074,0.8060379859427595,0.5044718070355966
0.4339356295878035,0.5067567567567567,0.755005005005005,0.5008999424455413,0.4959711878891466,0.5022289272197709
0.4257481648785997,0.7294794794794793,0.6123623623623623,0.6765962641924063,0.4866316689048956,0.500763904634006
0.4333709768492377,0.5082582582582582,0.7785285285285285,0.4809233130439332,0.7036677886879328,0.4936062228578405
0.4556747600225861,0.3048048048048047,0.3858858858858859,0.8023893820744021,0.5403945096534524,0.5197778049078257
0.4330886504799548,0.2835335335335335,0.5890890890890891,0.7250187488009487,0.5290562812843365,0.514315363552331
0.4345002823263693,0.5065065065065064,0.7545045045045045,0.500838899837801,0.4959258419519682,0.5021207946003453
0.1736307171089779,0.5037537537537536,0.4319319319319319,0.4600013952596055,0.6771456476620681,0.4917749446256344
0.3969508752117447,0.5598098098098097,0.7972972972972973,0.6217032631634023,0.6206812355023806,0.2274901023771736
0.5321852060982496,0.4819819819819819,0.7635135135135135,0.3745731377644453,0.4380260564731325,0.2006313549714843
0.4345002823263693,0.5067567567567567,0.7547547547547546,0.5008999424455413,0.4959554912185848,0.5021661405375237
0.4841897233201581,0.5407907907907907,0.7292292292292292,0.5613792141200272,0.3180773322636343,0.5403038177790955
0.4785431959345003,0.5585585585585585,0.6976976976976976,0.5789891344158222,0.5190452936149432,0.078928091808082
0.6434217955957087,0.5040040040040039,0.6498998998998998,0.4838237089488463,0.8542599019830127,0.4853201248757346
0.1846414455110107,0.5052552552552552,0.3846346346346346,0.5008092505711844,0.5570591415665277,0.5068978146746429
0.3862224731789949,0.5628128128128127,0.7409909909909909,0.3835464011022551,0.3862933184505642,0.9305178157210876
0.3992094861660079,0.559059059059059,0.7017017017017017,0.5385946247623699,0.4624430995692136,0.0994994506165303
0.4113495200451722,0.632132132132132,0.7492492492492492,0.1799693042886792,0.4853497741423513,0.4833353680869247
0.4536984754376059,0.6268768768768768,0.7159659659659658,0.5155658649737517,0.5630727104661911,0.6885309660428693
0.4347826086956521,0.5067567567567567,0.7540040040040039,0.5006557720145804,0.4958944486108446,0.5021818372080855
0.5056465273856579,1.0,0.495995995995996,0.7556621378865305,0.4239566074262693,1.0
0.4333709768492377,0.5047547547547546,0.7545045045045045,0.5012661980919825,0.495788060065926,0.5020457993965503
0.3557312252964427,0.4977477477477476,0.7665165165165164,0.5147880077436908,0.2472679072849992,0.523042712384673
0.1900056465273856,0.5067567567567567,0.3701201201201201,0.4811988768160176,0.5771875054502328,0.4968554336641261
0.4503105590062112,0.4697197197197196,0.7605105105105104,0.5045328496433368,0.5175349250919999,0.7315503078291505
0.676171654432524,0.4869869869869869,0.3656156156156156,0.5165582433681567,0.5872141897901878,0.4977117742469958
0.4906832298136646,0.2642642642642642,0.5362862862862863,0.7398817517484346,0.5085459650836284,0.5248896872874409
0.4090909090909091,0.5007507507507507,0.7412412412412412,0.3961351308927917,0.4197743167588119,0.8440971798315224
0.4613212874082439,0.265015015015015,0.5442942942942943,0.3094860212428275,0.4701815581561644,0.5135968048555034
0.4793901750423489,0.5227727727727727,0.7952952952952952,0.5404415996651377,0.5423025271639604,0.9339972443622792
0.4339356295878035,0.5055055055055054,0.7545045045045045,0.5008702931789246,0.4959868845597084,0.5020301027259885
0.4234895539243365,0.0,0.3923923923923924,0.4692798716361163,0.8571149519507473,0.256394649179413
0.577922077922078,0.5175175175175174,0.6056056056056056,1.0,0.5430036451157193,0.3485079442593787
0.2851496329757199,0.5015015015015014,0.7302302302302301,0.4756439995116591,0.1699426199487242,0.5443622791565655
0.4728966685488425,0.5317817817817817,0.7665165165165164,0.4777351448453878,0.3564591799361669,0.0
0.4342179559570864,0.5065065065065064,0.755005005005005,0.500992378394405,0.4959868845597084,0.5022742731569493
0.4935064935064935,0.2647647647647647,0.5012512512512513,0.7260861223991488,0.5341681636639517,0.5197167623000855
0.6804065499717673,0.4937437437437436,0.602102102102102,0.5148176570103075,0.7300852852433856,0.5061339100406369
0.4824957651044607,0.5195195195195195,0.7474974974974975,0.5468964194150374,0.425512321886391,0.5190156443483266
0.3977978543195934,0.5442942942942942,0.7367367367367367,0.5027922632854875,0.4446186581090744,0.4125102464377278
0.2320722755505364,0.4997497497497496,0.324074074074074,0.5040288121108534,0.477796187453128,0.513551458918325
0.4345002823263693,0.5065065065065064,0.7545045045045045,0.5009313357866648,0.4959554912185848,0.5020144060554267
0.3706945228684359,0.4974974974974974,0.7394894894894894,0.5003348623053177,0.5416014092122016,0.6534611158588695
0.2326369282891022,0.5015015015015014,0.6363863863863863,0.4846486561905924,0.1257320752742557,0.5175488776880548
0.4658385093167702,0.5305305305305305,0.7532532532532532,0.5113539250396777,0.4670980344280308,0.6282958647993442
0.4319593450028233,0.4819819819819819,0.7735235235235235,0.4975269023492684,0.4384847480684375,0.4265203969513578
0.4184076792772445,0.6624124124124123,0.6719219219219219,0.1606327502310899,0.5077210178418822,0.4758881699426199
0.435064935064935,0.5067567567567567,0.7527527527527527,0.5010220276610217,0.4960322304968868,0.5025934387917051
0.4556747600225861,0.7537537537537535,0.6148648648648648,0.4556063275023109,0.5367633465301638,0.7738528349931109
0.6645962732919255,0.5077577577577577,0.335085085085085,0.5143764061600712,0.5600816226869212,0.4920487643232119
0.4443817052512704,0.3435935935935935,0.7064564564564564,0.2964385998569859,0.4699373877252036,0.492263285487556
0.5654997176736307,0.574074074074074,0.7542542542542542,1.0,0.5944625634407101,0.0
0.4322416713721062,0.5065065065065064,0.7632632632632632,0.5067757294591625,0.4948427716832063,0.5054624413554947
0.4336533032185206,0.4704704704704704,0.7722722722722721,0.5996058391614489,0.358595671207074,1.0
0.4655561829474873,0.4599599599599598,0.7642642642642642,0.5112771857613757,0.471981443047247,0.4500218009313358
0.4511575381140598,0.7577577577577577,0.6539039039039038,0.5500863316880897,0.1756649284057415,0.0
0.4407114624505929,0.4709709709709709,0.7467467467467467,0.4888902453912831,0.4929957967804385,0.3291120916685561
0.8145115753811405,0.5728228228228227,0.7267267267267267,0.6871112893942829,0.5294992762090797,1.0
0.435347261434218,0.5082582582582582,0.756006006006006,0.5009766817238432,0.4960775764340652,0.5024574009801699
0.427442123094297,0.7217217217217216,0.6068568568568569,0.6698658806704223,0.5005650801402236,0.5018469749027679
0.4347826086956521,0.5067567567567567,0.7545045045045045,0.5009313357866648,0.4959397945480231,0.5021975338786473
0.35742518351214,0.4151651651651651,0.4709709709709709,0.6256413833998988,0.4968257843975094,1.0
0.5488424618859402,0.3503503503503503,0.5688188188188188,0.568672933707728,0.5175488776880548,0.0
0.4020327498588368,0.542042042042042,0.7377377377377377,0.5235938399288418,0.5119800477876415,0.3283795803756736
0.4407114624505929,0.5823323323323323,0.7597597597597596,0.5919005179901285,0.5293457976524757,0.0
0.4297007340485601,0.4614614614614614,0.7665165165165164,0.2764933637965014,0.4999389573922598,0.5151699600606938
0.6792772444946358,0.5077577577577577,0.3916416416416416,0.4897744911662626,0.3182447634162931,0.5111254512792787
0.1713721061547148,0.2582582582582582,0.5540540540540541,0.4482358686363081,0.4345623245025027,0.5106824563545355
0.4345002823263693,0.5065065065065064,0.7542542542542542,0.5008842457749795,0.4959868845597084,0.5021050979297835
0.4217955957086391,0.4832332332332331,0.7452452452452452,0.4382405776374767,0.4837940596822296,0.4614664178453703
0.4313946922642575,0.6926926926926926,0.6313813813813813,0.0387306625739051,0.4878368243891379,0.5087447895774108
0.707227555053642,0.4697197197197196,0.4507007007007007,0.5029753911087081,0.6859043898355337,0.5081500601705705
0.5640880858272163,0.4982482482482481,0.7159659659659658,0.4468929312660237,0.9518059891518568,0.5145891832499084
